Browser,participant,Group,Day,date,expName,psychopyVersion,OS,frameRate,hitPercent,pointsGiven,fixMouse.x,fixMouse.y,fixMouse.leftButton,fixMouse.midButton,fixMouse.rightButton,fixMouse.time,bounceDirArr,ballPosX,ballPosY,paddlePosX,paddlePosY,alphaChoice,pertChoice,horOrTilt,hitOrMiss,trialType,trialsNum,tasksNum,trialRepeat,ballSpeed,interceptBall,interceptPaddle,interceptDelta,wallBounceX,wallBounceY,wallOrient,connectTime,bounceTime,cumulativetime,trialMouse.x,trialMouse.y,trialMouse.leftButton,trialMouse.midButton,trialMouse.rightButton,trialMouse.time,trials.thisRepN,trials.thisTrialN,trials.thisN,trials.thisIndex,trials.ran,Sound,tasks.thisRepN,tasks.thisTrialN,tasks.thisN,tasks.thisIndex,tasks.ran
Chrome,1,1,1,2022-10-27_12h17.24.131,bounceV3,2022.2.4,Win32,61.05378839,,,,,,,,,,,,,,,,,,,,,,,,,,,,,,,,,,,,,,,,,,,,,,,,
,1,1,1,2022-10-27_12h17.24.131,bounceV3,2022.2.4,Win32,61.05378839,2,0,[],[],[],[],[],[],"[0,0,0,0,0,0,0,0,0,0,0,0,0,0,0,0,0,0,0,0,0,0,0,0,0,1,1,1,1,1,1,1,1,1,1,1,1,1,1,1,1,1,1,1,1,1,1,1,1,1,1]","[-0.1607695154586736,-0.15433873484032665,-0.1479079542219797,-0.14147717360363274,-0.13504639298528578,-0.12861561236693883,-0.12218483174859189,-0.11575405113024495,-0.10932327051189801,-0.10289248989355107,-0.09646170927520413,-0.09003092865685719,-0.08360014803851025,-0.07716936742016331,-0.07073858680181637,-0.06430780618346943,-0.05787702556512248,-0.051446244946775535,-0.04501546432842859,-0.03858468371008164,-0.032153903091734694,-0.02572312247338775,-0.019292341855040807,-0.012861561236693863,-0.0064307806183469185,2.6020852139652106e-17,0.0064307806183469705,0.012861561236693915,0.01929234185504086,0.025723122473387802,0.03215390309173475,0.038584683710081696,0.045015464328428643,0.05144624494677559,0.05787702556512254,0.06430780618346948,0.07073858680181642,0.07716936742016337,0.0836001480385103,0.09003092865685725,0.09646170927520419,0.10289248989355113,0.10932327051189807,0.115754051130245,0.12218483174859195,0.1286156123669389,0.13504639298528584,0.1414771736036328,0.14790795422197975,0.1543387348403267,0.16076951545867366]","[-0.3,-0.27599999999999997,-0.25199999999999995,-0.22799999999999995,-0.20399999999999996,-0.17999999999999997,-0.15599999999999997,-0.13199999999999998,-0.10799999999999998,-0.08399999999999999,-0.05999999999999999,-0.03599999999999999,-0.01199999999999999,0.01200000000000001,0.03600000000000001,0.06000000000000001,0.08400000000000002,0.10800000000000001,0.132,0.156,0.18,0.204,0.22799999999999998,0.252,0.276,0.30000000000000004,0.276,0.252,0.228,0.20400000000000001,0.18000000000000002,0.15600000000000003,0.13200000000000003,0.10800000000000004,0.08400000000000005,0.060000000000000046,0.036000000000000046,0.012000000000000045,-0.011999999999999955,-0.035999999999999956,-0.059999999999999956,-0.08399999999999996,-0.10799999999999996,-0.13199999999999995,-0.15599999999999994,-0.17999999999999994,-0.20399999999999993,-0.22799999999999992,-0.25199999999999995,-0.27599999999999997,-0.3]","[-0.5,-0.5,-0.5,-0.5,-0.5,-0.5,-0.5,-0.5,-0.5,-0.5,-0.5,-0.5,-0.5,-0.5,-0.5,-0.5,-0.5,-0.5,-0.5,-0.5,-0.49947916666666664,-0.49687499999999996,-0.4901041666666667,-0.48177083333333337,-0.4739583333333333,-0.46458333333333335,-0.453125,-0.4385416666666667,-0.4203125,-0.39687500000000003,-0.36562500000000003,-0.33177083333333335,-0.296875,-0.2635416666666667,-0.2265625,-0.19010416666666666,-0.14322916666666669,-0.09947916666666666,-0.0625,-0.025520833333333336,0.008854166666666666,0.03854166666666667,0.0671875,0.09375,0.1234375,0.15729166666666666,0.17864583333333334,0.18281250000000002,0.18281250000000002,0.18281250000000002,0.18281250000000002]","[-0.3,-0.3,-0.3,-0.3,-0.3,-0.3,-0.3,-0.3,-0.3,-0.3,-0.3,-0.3,-0.3,-0.3,-0.3,-0.3,-0.3,-0.3,-0.3,-0.3,-0.3,-0.3,-0.3,-0.3,-0.3,-0.3,-0.3,-0.3,-0.3,-0.3,-0.3,-0.3,-0.3,-0.3,-0.3,-0.3,-0.3,-0.3,-0.3,-0.3,-0.3,-0.3,-0.3,-0.3,-0.3,-0.3,-0.3,-0.3,-0.3,-0.3,-0.3]",75,0,1,hit,1,1,1,,0.04,0.160769515,0.1828125,-0.022042985,2.60209E-17,0.3,hor,,,4.2233,[],[],[],[],[],[],0,0,0,0,1,0.4,,,,,
,1,1,1,2022-10-27_12h17.24.131,bounceV3,2022.2.4,Win32,61.05378839,,10,[],[],[],[],[],[],"[0,0,0,0,0,0,0,0,0,0,0,0,0,0,0,0,0,0,0,0,0,0,0,0,0,1,1,1,1,1,1,1,1,1,1,1,1,1,1,1,1,1,1,1,1,1,1,1,1,1,1]","[0.05249319811555451,0.05039347019093233,0.04829374226631015,0.04619401434168797,0.04409428641706579,0.04199455849244361,0.03989483056782143,0.03779510264319925,0.03569537471857707,0.03359564679395489,0.03149591886933271,0.029396190944710528,0.027296463020088348,0.025196735095466168,0.023097007170843988,0.020997279246221807,0.018897551321599627,0.016797823396977447,0.014698095472355267,0.012598367547733087,0.010498639623110907,0.008398911698488727,0.006299183773866547,0.004199455849244367,0.0020997279246221866,6.071532165918825e-18,-0.00209972792462217,-0.004199455849244346,-0.006299183773866523,-0.0083989116984887,-0.010498639623110876,-0.012598367547733053,-0.01469809547235523,-0.016797823396977406,-0.018897551321599582,-0.02099727924622176,-0.023097007170843935,-0.025196735095466112,-0.02729646302008829,-0.029396190944710465,-0.03149591886933264,-0.03359564679395481,-0.035695374718576985,-0.03779510264319916,-0.03989483056782133,-0.041994558492443504,-0.04409428641706568,-0.04619401434168785,-0.04829374226631002,-0.050393470190932196,-0.05249319811555437]","[-0.3,-0.27599999999999997,-0.25199999999999995,-0.22799999999999995,-0.20399999999999996,-0.17999999999999997,-0.15599999999999997,-0.13199999999999998,-0.10799999999999998,-0.08399999999999999,-0.05999999999999999,-0.03599999999999999,-0.01199999999999999,0.01200000000000001,0.03600000000000001,0.06000000000000001,0.08400000000000002,0.10800000000000001,0.132,0.156,0.18,0.204,0.22799999999999998,0.252,0.276,0.30000000000000004,0.276,0.252,0.228,0.20400000000000001,0.18000000000000002,0.15600000000000003,0.13200000000000003,0.10800000000000004,0.08400000000000005,0.060000000000000046,0.036000000000000046,0.012000000000000045,-0.011999999999999955,-0.035999999999999956,-0.059999999999999956,-0.08399999999999996,-0.10799999999999996,-0.13199999999999995,-0.15599999999999994,-0.17999999999999994,-0.20399999999999993,-0.22799999999999992,-0.25199999999999995,-0.27599999999999997,-0.3]","[0.49947916666666664,0.49947916666666664,0.49947916666666664,0.49947916666666664,0.49947916666666664,0.49947916666666664,0.49947916666666664,0.49947916666666664,0.49947916666666664,0.49947916666666664,0.49947916666666664,0.49947916666666664,0.49947916666666664,0.49947916666666664,0.49895833333333334,0.49739583333333337,0.49635416666666665,0.4953125,0.4890625,0.4755208333333333,0.4510416666666667,0.41093749999999996,0.36302083333333335,0.3046875,0.2557291666666667,0.21614583333333331,0.1859375,0.16302083333333334,0.15104166666666669,0.14635416666666667,0.13958333333333334,0.12916666666666665,0.11770833333333333,0.10677083333333334,0.09895833333333334,0.09635416666666667,0.09583333333333333,0.09427083333333333,0.08854166666666667,0.0796875,0.0703125,0.059895833333333336,0.04375,0.02291666666666667,0.0036458333333333334,-0.010416666666666666,-0.014583333333333334,-0.015625,-0.016666666666666666,-0.01875,-0.01979166666666667]","[-0.3,-0.3,-0.3,-0.3,-0.3,-0.3,-0.3,-0.3,-0.3,-0.3,-0.3,-0.3,-0.3,-0.3,-0.3,-0.3,-0.3,-0.3,-0.3,-0.3,-0.3,-0.3,-0.3,-0.3,-0.3,-0.3,-0.3,-0.3,-0.3,-0.3,-0.3,-0.3,-0.3,-0.3,-0.3,-0.3,-0.3,-0.3,-0.3,-0.3,-0.3,-0.3,-0.3,-0.3,-0.3,-0.3,-0.3,-0.3,-0.3,-0.3,-0.3]",-85,0,1,hit,1,2,1,,0.04,-0.052493198,-0.01875,-0.033743198,6.07153E-18,0.3,hor,,,8.8549,[],[],[],[],[],[],0,1,1,1,1,5,,,,,
,1,1,1,2022-10-27_12h17.24.131,bounceV3,2022.2.4,Win32,61.05378839,,,,,,,,,,,,,,,,,,,,,,,,,,,,,,,,,,,,,,,,,,,,0,0,0,0,1
,1,1,1,2022-10-27_12h17.24.131,bounceV3,2022.2.4,Win32,61.05378839,0.04,0,[0.044444444444444446],[0.014814814814814815],[1],[0],[0],[2.2046000000238415],"[0,0,0,0,0,0,0,0,0,0,0,0,0,0,0,0,0,0,0,0,0,0,0,0,0,1,1,1,1,1,1,1,1,1,1,1,1,1,1,1,1,1,1,1,1,1,1,1,1,1,1]","[0.05249319811555451,0.05039347019093233,0.04829374226631015,0.04619401434168797,0.04409428641706579,0.04199455849244361,0.03989483056782143,0.03779510264319925,0.03569537471857707,0.03359564679395489,0.03149591886933271,0.029396190944710528,0.027296463020088348,0.025196735095466168,0.023097007170843988,0.020997279246221807,0.018897551321599627,0.016797823396977447,0.014698095472355267,0.012598367547733087,0.010498639623110907,0.008398911698488727,0.006299183773866547,0.004199455849244367,0.0020997279246221866,6.071532165918825e-18,-0.00209972792462217,-0.004199455849244346,-0.006299183773866523,-0.0083989116984887,-0.010498639623110876,-0.012598367547733053,-0.01469809547235523,-0.016797823396977406,-0.018897551321599582,-0.02099727924622176,-0.023097007170843935,-0.025196735095466112,-0.02729646302008829,-0.029396190944710465,-0.03149591886933264,-0.03359564679395481,-0.035695374718576985,-0.03779510264319916,-0.03989483056782133,-0.041994558492443504,-0.04409428641706568,-0.04619401434168785,-0.04829374226631002,-0.050393470190932196,-0.05249319811555437]","[-0.3,-0.27599999999999997,-0.25199999999999995,-0.22799999999999995,-0.20399999999999996,-0.17999999999999997,-0.15599999999999997,-0.13199999999999998,-0.10799999999999998,-0.08399999999999999,-0.05999999999999999,-0.03599999999999999,-0.01199999999999999,0.01200000000000001,0.03600000000000001,0.06000000000000001,0.08400000000000002,0.10800000000000001,0.132,0.156,0.18,0.204,0.22799999999999998,0.252,0.276,0.30000000000000004,0.276,0.252,0.228,0.20400000000000001,0.18000000000000002,0.15600000000000003,0.13200000000000003,0.10800000000000004,0.08400000000000005,0.060000000000000046,0.036000000000000046,0.012000000000000045,-0.011999999999999955,-0.035999999999999956,-0.059999999999999956,-0.08399999999999996,-0.10799999999999996,-0.13199999999999995,-0.15599999999999994,-0.17999999999999994,-0.20399999999999993,-0.22799999999999992,-0.25199999999999995,-0.27599999999999997,-0.3]","[0.025,0.025,0.025,0.025,0.025,0.025,0.025,0.025,0.024479166666666666,0.024479166666666666,0.024479166666666666,0.024479166666666666,0.024479166666666666,0.024479166666666666,0.024479166666666666,0.024479166666666666,0.024479166666666666,0.024479166666666666,0.024479166666666666,0.024479166666666666,0.024479166666666666,0.024479166666666666,0.024479166666666666,0.024479166666666666,0.024479166666666666,0.024479166666666666,0.024479166666666666,0.024479166666666666,0.024479166666666666,0.0234375,0.01979166666666667,0.0125,0.005729166666666667,-0.0005208333333333333,-0.005208333333333333,-0.0109375,-0.017187499999999998,-0.024479166666666666,-0.03125,-0.034895833333333334,-0.03697916666666667,-0.040624999999999994,-0.04635416666666666,-0.05364583333333333,-0.057812499999999996,-0.058333333333333334,-0.058333333333333334,-0.058854166666666666,-0.059375,-0.059375,-0.059375]","[-0.3,-0.3,-0.3,-0.3,-0.3,-0.3,-0.3,-0.3,-0.3,-0.3,-0.3,-0.3,-0.3,-0.3,-0.3,-0.3,-0.3,-0.3,-0.3,-0.3,-0.3,-0.3,-0.3,-0.3,-0.3,-0.3,-0.3,-0.3,-0.3,-0.3,-0.3,-0.3,-0.3,-0.3,-0.3,-0.3,-0.3,-0.3,-0.3,-0.3,-0.3,-0.3,-0.3,-0.3,-0.3,-0.3,-0.3,-0.3,-0.3,-0.3,-0.3]",-85,0,1,hit,1,1,2,,0.04,-0.052493198,-0.059375,0.006881802,6.07153E-18,0.3,hor,,,16.9042,[],[],[],[],[],[],0,0,0,1,1,5,,,,,
,1,1,1,2022-10-27_12h17.24.131,bounceV3,2022.2.4,Win32,61.05378839,,10,[0.09259259259259259],[0.03611111111111111],[1],[0],[0],[2.0106999999880806],"[0,0,0,0,0,0,0,0,0,0,0,0,0,0,0,0,0,0,0,0,0,0,0,0,0,1,1,1,1,1,1,1,1,1,1,1,1,1,1,1,1,1,1,1,1,1,1,1,1,1,1]","[-0.05249319811555451,-0.05039347019093233,-0.04829374226631015,-0.04619401434168797,-0.04409428641706579,-0.04199455849244361,-0.03989483056782143,-0.03779510264319925,-0.03569537471857707,-0.03359564679395489,-0.03149591886933271,-0.029396190944710528,-0.027296463020088348,-0.025196735095466168,-0.023097007170843988,-0.020997279246221807,-0.018897551321599627,-0.016797823396977447,-0.014698095472355267,-0.012598367547733087,-0.010498639623110907,-0.008398911698488727,-0.006299183773866547,-0.004199455849244367,-0.0020997279246221866,-6.071532165918825e-18,0.00209972792462217,0.004199455849244346,0.006299183773866523,0.0083989116984887,0.010498639623110876,0.012598367547733053,0.01469809547235523,0.016797823396977406,0.018897551321599582,0.02099727924622176,0.023097007170843935,0.025196735095466112,0.02729646302008829,0.029396190944710465,0.03149591886933264,0.03359564679395481,0.035695374718576985,0.03779510264319916,0.03989483056782133,0.041994558492443504,0.04409428641706568,0.04619401434168785,0.04829374226631002,0.050393470190932196,0.05249319811555437]","[-0.3,-0.27599999999999997,-0.25199999999999995,-0.22799999999999995,-0.20399999999999996,-0.17999999999999997,-0.15599999999999997,-0.13199999999999998,-0.10799999999999998,-0.08399999999999999,-0.05999999999999999,-0.03599999999999999,-0.01199999999999999,0.01200000000000001,0.03600000000000001,0.06000000000000001,0.08400000000000002,0.10800000000000001,0.132,0.156,0.18,0.204,0.22799999999999998,0.252,0.276,0.30000000000000004,0.276,0.252,0.228,0.20400000000000001,0.18000000000000002,0.15600000000000003,0.13200000000000003,0.10800000000000004,0.08400000000000005,0.060000000000000046,0.036000000000000046,0.012000000000000045,-0.011999999999999955,-0.035999999999999956,-0.059999999999999956,-0.08399999999999996,-0.10799999999999996,-0.13199999999999995,-0.15599999999999994,-0.17999999999999994,-0.20399999999999993,-0.22799999999999992,-0.25199999999999995,-0.27599999999999997,-0.3]","[0.05208333333333333,0.05208333333333333,0.05208333333333333,0.05208333333333333,0.05208333333333333,0.05208333333333333,0.05208333333333333,0.05208333333333333,0.05208333333333333,0.05208333333333333,0.05208333333333333,0.05208333333333333,0.05208333333333333,0.05208333333333333,0.05208333333333333,0.05208333333333333,0.05208333333333333,0.05208333333333333,0.05208333333333333,0.05208333333333333,0.05208333333333333,0.05208333333333333,0.05208333333333333,0.0515625,0.050520833333333334,0.04895833333333333,0.044270833333333336,0.0375,0.034895833333333334,0.034374999999999996,0.034374999999999996,0.034374999999999996,0.034374999999999996,0.034374999999999996,0.034374999999999996,0.034895833333333334,0.03645833333333333,0.041666666666666664,0.04791666666666666,0.05208333333333333,0.05260416666666667,0.05260416666666667,0.053125,0.05572916666666667,0.058854166666666666,0.060937500000000006,0.060937500000000006,0.06145833333333334,0.06145833333333334,0.0640625,0.06666666666666667]","[-0.3,-0.3,-0.3,-0.3,-0.3,-0.3,-0.3,-0.3,-0.3,-0.3,-0.3,-0.3,-0.3,-0.3,-0.3,-0.3,-0.3,-0.3,-0.3,-0.3,-0.3,-0.3,-0.3,-0.3,-0.3,-0.3,-0.3,-0.3,-0.3,-0.3,-0.3,-0.3,-0.3,-0.3,-0.3,-0.3,-0.3,-0.3,-0.3,-0.3,-0.3,-0.3,-0.3,-0.3,-0.3,-0.3,-0.3,-0.3,-0.3,-0.3,-0.3]",85,0,1,hit,1,2,2,,0.04,0.052493198,0.0640625,-0.011569302,-6.07153E-18,0.3,hor,,,19.7537,[],[],[],[],[],[],0,1,1,0,1,0.4,,,,,
,1,1,1,2022-10-27_12h17.24.131,bounceV3,2022.2.4,Win32,61.05378839,,,,,,,,,,,,,,,,,,,,,,,,,,,,,,,,,,,,,,,,,,,,1,0,1,0,1
,1,1,1,2022-10-27_12h17.24.131,bounceV3,2022.2.4,Win32,61.05378839,0.04,0,[-0.028703703703703703],[0.025],[1],[0],[0],[4.739599999964234],"[0,0,0,0,0,0,0,0,0,0,0,0,0,0,0,0,0,0,0,0,0,0,0,0,0,1,1,1,1,1,1,1,1,1,1,1,1,1,1,1,1,1,1,1,1,1,1,1,1,1,1]","[0.05249319811555451,0.05039347019093233,0.04829374226631015,0.04619401434168797,0.04409428641706579,0.04199455849244361,0.03989483056782143,0.03779510264319925,0.03569537471857707,0.03359564679395489,0.03149591886933271,0.029396190944710528,0.027296463020088348,0.025196735095466168,0.023097007170843988,0.020997279246221807,0.018897551321599627,0.016797823396977447,0.014698095472355267,0.012598367547733087,0.010498639623110907,0.008398911698488727,0.006299183773866547,0.004199455849244367,0.0020997279246221866,6.071532165918825e-18,-0.00209972792462217,-0.004199455849244346,-0.006299183773866523,-0.0083989116984887,-0.010498639623110876,-0.012598367547733053,-0.01469809547235523,-0.016797823396977406,-0.018897551321599582,-0.02099727924622176,-0.023097007170843935,-0.025196735095466112,-0.02729646302008829,-0.029396190944710465,-0.03149591886933264,-0.03359564679395481,-0.035695374718576985,-0.03779510264319916,-0.03989483056782133,-0.041994558492443504,-0.04409428641706568,-0.04619401434168785,-0.04829374226631002,-0.050393470190932196,-0.05249319811555437]","[-0.3,-0.27599999999999997,-0.25199999999999995,-0.22799999999999995,-0.20399999999999996,-0.17999999999999997,-0.15599999999999997,-0.13199999999999998,-0.10799999999999998,-0.08399999999999999,-0.05999999999999999,-0.03599999999999999,-0.01199999999999999,0.01200000000000001,0.03600000000000001,0.06000000000000001,0.08400000000000002,0.10800000000000001,0.132,0.156,0.18,0.204,0.22799999999999998,0.252,0.276,0.30000000000000004,0.276,0.252,0.228,0.20400000000000001,0.18000000000000002,0.15600000000000003,0.13200000000000003,0.10800000000000004,0.08400000000000005,0.060000000000000046,0.036000000000000046,0.012000000000000045,-0.011999999999999955,-0.035999999999999956,-0.059999999999999956,-0.08399999999999996,-0.10799999999999996,-0.13199999999999995,-0.15599999999999994,-0.17999999999999994,-0.20399999999999993,-0.22799999999999992,-0.25199999999999995,-0.27599999999999997,-0.3]","[-0.01614583333333333,-0.01614583333333333,-0.01614583333333333,-0.01614583333333333,-0.01614583333333333,-0.01614583333333333,-0.01614583333333333,-0.01614583333333333,-0.01614583333333333,-0.01614583333333333,-0.01614583333333333,-0.01614583333333333,-0.01614583333333333,-0.01614583333333333,-0.01614583333333333,-0.01614583333333333,-0.01614583333333333,-0.01614583333333333,-0.01614583333333333,-0.01614583333333333,-0.01614583333333333,-0.01614583333333333,-0.01614583333333333,-0.014583333333333334,-0.011979166666666666,-0.009375,-0.008854166666666666,-0.008854166666666666,-0.008333333333333333,-0.00625,-0.003125,-0.0015625,-0.0015625,-0.0015625,-0.0020833333333333333,-0.0026041666666666665,-0.003125,-0.005208333333333333,-0.007291666666666667,-0.009895833333333335,-0.011458333333333334,-0.013020833333333332,-0.015104166666666667,-0.017708333333333333,-0.021354166666666667,-0.027604166666666666,-0.0359375,-0.043229166666666666,-0.04583333333333334,-0.04635416666666666,-0.04635416666666666]","[-0.3,-0.3,-0.3,-0.3,-0.3,-0.3,-0.3,-0.3,-0.3,-0.3,-0.3,-0.3,-0.3,-0.3,-0.3,-0.3,-0.3,-0.3,-0.3,-0.3,-0.3,-0.3,-0.3,-0.3,-0.3,-0.3,-0.3,-0.3,-0.3,-0.3,-0.3,-0.3,-0.3,-0.3,-0.3,-0.3,-0.3,-0.3,-0.3,-0.3,-0.3,-0.3,-0.3,-0.3,-0.3,-0.3,-0.3,-0.3,-0.3,-0.3,-0.3]",-85,0,1,hit,1,1,3,,0.04,-0.052493198,-0.046354167,-0.006139031,6.07153E-18,0.3,hor,,,28.0859,[],[],[],[],[],[],0,0,0,0,1,0.4,,,,,
,1,1,1,2022-10-27_12h17.24.131,bounceV3,2022.2.4,Win32,61.05378839,,10,[-0.05925925925925926],[0.012037037037037037],[1],[0],[0],[0.6621999999880757],"[0,0,0,0,0,0,0,0,0,0,0,0,0,0,0,0,0,0,0,0,0,0,0,0,0,1,1,1,1,1,1,1,1,1,1,1,1,1,1,1,1,1,1,1,1,1,1,1,1,1,1]","[0.21838214055972147,0.2096468549373326,0.20091156931494375,0.1921762836925549,0.18344099807016606,0.17470571244777722,0.16597042682538837,0.15723514120299953,0.14849985558061068,0.13976456995822184,0.131029284335833,0.12229399871344414,0.11355871309105528,0.10482342746866642,0.09608814184627756,0.0873528562238887,0.07861757060149985,0.06988228497911099,0.06114699935672213,0.05241171373433327,0.043676428111944415,0.03494114248955556,0.0262058568671667,0.01747057124477784,0.008735285622388983,1.249000902703301e-16,-0.008735285622388731,-0.017470571244777588,-0.026205856867166442,-0.0349411424895553,-0.04367642811194416,-0.05241171373433302,-0.061146999356721875,-0.06988228497911073,-0.07861757060149958,-0.08735285622388844,-0.0960881418462773,-0.10482342746866616,-0.11355871309105502,-0.12229399871344387,-0.13102928433583272,-0.13976456995822156,-0.1484998555806104,-0.15723514120299925,-0.1659704268253881,-0.17470571244777694,-0.18344099807016578,-0.19217628369255463,-0.20091156931494347,-0.20964685493733232,-0.21838214055972116]","[-0.3,-0.27599999999999997,-0.25199999999999995,-0.22799999999999995,-0.20399999999999996,-0.17999999999999997,-0.15599999999999997,-0.13199999999999998,-0.10799999999999998,-0.08399999999999999,-0.05999999999999999,-0.03599999999999999,-0.01199999999999999,0.01200000000000001,0.03600000000000001,0.06000000000000001,0.08400000000000002,0.10800000000000001,0.132,0.156,0.18,0.204,0.22799999999999998,0.252,0.276,0.30000000000000004,0.276,0.252,0.228,0.20400000000000001,0.18000000000000002,0.15600000000000003,0.13200000000000003,0.10800000000000004,0.08400000000000005,0.060000000000000046,0.036000000000000046,0.012000000000000045,-0.011999999999999955,-0.035999999999999956,-0.059999999999999956,-0.08399999999999996,-0.10799999999999996,-0.13199999999999995,-0.15599999999999994,-0.17999999999999994,-0.20399999999999993,-0.22799999999999992,-0.25199999999999995,-0.27599999999999997,-0.3]","[-0.03333333333333333,-0.03333333333333333,-0.03333333333333333,-0.03333333333333333,-0.03333333333333333,-0.03333333333333333,-0.03333333333333333,-0.03333333333333333,-0.03333333333333333,-0.03333333333333333,-0.03333333333333333,-0.03333333333333333,-0.03333333333333333,-0.03333333333333333,-0.03333333333333333,-0.03333333333333333,-0.03333333333333333,-0.03333333333333333,-0.03333333333333333,-0.03333333333333333,-0.03333333333333333,-0.03333333333333333,-0.03333333333333333,-0.03333333333333333,-0.03333333333333333,-0.03333333333333333,-0.03333333333333333,-0.034374999999999996,-0.03697916666666667,-0.040624999999999994,-0.045312500000000006,-0.050520833333333334,-0.058333333333333334,-0.06874999999999999,-0.0796875,-0.08802083333333333,-0.09479166666666666,-0.10260416666666666,-0.11354166666666668,-0.12552083333333333,-0.13489583333333333,-0.1421875,-0.14635416666666667,-0.15416666666666667,-0.16822916666666665,-0.1859375,-0.19947916666666665,-0.2078125,-0.209375,-0.209375,-0.20989583333333334]","[-0.3,-0.3,-0.3,-0.3,-0.3,-0.3,-0.3,-0.3,-0.3,-0.3,-0.3,-0.3,-0.3,-0.3,-0.3,-0.3,-0.3,-0.3,-0.3,-0.3,-0.3,-0.3,-0.3,-0.3,-0.3,-0.3,-0.3,-0.3,-0.3,-0.3,-0.3,-0.3,-0.3,-0.3,-0.3,-0.3,-0.3,-0.3,-0.3,-0.3,-0.3,-0.3,-0.3,-0.3,-0.3,-0.3,-0.3,-0.3,-0.3,-0.3,-0.3]",-70,0,1,hit,1,2,3,,0.04,-0.218382141,-0.209375,-0.009007141,1.249E-16,0.3,hor,,,29.5861,[],[],[],[],[],[],0,1,1,1,1,5,,,,,
,1,1,1,2022-10-27_12h17.24.131,bounceV3,2022.2.4,Win32,61.05378839,,,,,,,,,,,,,,,,,,,,,,,,,,,,,,,,,,,,,,,,,,,,2,0,2,0,1
,1,1,1,2022-10-27_12h17.24.131,bounceV3,2022.2.4,Win32,61.05378839,0.04,0,[-0.1712962962962963],[0.07592592592592592],[1],[0],[0],[0.832499999999996],"[0,0,0,0,0,0,0,0,0,0,0,0,0,0,0,0,0,0,0,0,0,0,0,0,0,1,1,1,1,1,1,1,1,1,1,1,1,1,1,1,1,1,1,1,1,1,1,1,1,1,1]","[-0.10579618842507904,-0.10156434088807588,-0.09733249335107272,-0.09310064581406956,-0.0888687982770664,-0.08463695074006324,-0.08040510320306007,-0.07617325566605691,-0.07194140812905375,-0.06770956059205059,-0.06347771305504743,-0.05924586551804427,-0.05501401798104111,-0.05078217044403795,-0.046550322907034786,-0.042318475370031625,-0.038086627833028464,-0.0338547802960253,-0.02962293275902214,-0.02539108522201898,-0.02115923768501582,-0.016927390148012658,-0.012695542611009497,-0.008463695074006336,-0.004231847537003174,-1.214306433183765e-17,0.004231847537003147,0.008463695074006307,0.012695542611009466,0.016927390148012623,0.021159237685015785,0.025391085222018946,0.029622932759022107,0.03385478029602527,0.03808662783302843,0.04231847537003159,0.04655032290703475,0.05078217044403791,0.05501401798104107,0.059245865518044234,0.06347771305504739,0.06770956059205055,0.07194140812905371,0.07617325566605687,0.08040510320306003,0.0846369507400632,0.08886879827706635,0.09310064581406952,0.09733249335107268,0.10156434088807584,0.105796188425079]","[-0.3,-0.27599999999999997,-0.25199999999999995,-0.22799999999999995,-0.20399999999999996,-0.17999999999999997,-0.15599999999999997,-0.13199999999999998,-0.10799999999999998,-0.08399999999999999,-0.05999999999999999,-0.03599999999999999,-0.01199999999999999,0.01200000000000001,0.03600000000000001,0.06000000000000001,0.08400000000000002,0.10800000000000001,0.132,0.156,0.18,0.204,0.22799999999999998,0.252,0.276,0.30000000000000004,0.276,0.252,0.228,0.20400000000000001,0.18000000000000002,0.15600000000000003,0.13200000000000003,0.10800000000000004,0.08400000000000005,0.060000000000000046,0.036000000000000046,0.012000000000000045,-0.011999999999999955,-0.035999999999999956,-0.059999999999999956,-0.08399999999999996,-0.10799999999999996,-0.13199999999999995,-0.15599999999999994,-0.17999999999999994,-0.20399999999999993,-0.22799999999999992,-0.25199999999999995,-0.27599999999999997,-0.3]","[-0.09635416666666667,-0.09635416666666667,-0.09635416666666667,-0.09635416666666667,-0.09635416666666667,-0.09635416666666667,-0.09583333333333333,-0.09583333333333333,-0.09583333333333333,-0.09583333333333333,-0.09583333333333333,-0.09583333333333333,-0.09531250000000001,-0.09531250000000001,-0.09531250000000001,-0.09635416666666667,-0.09739583333333332,-0.09739583333333332,-0.09739583333333332,-0.09739583333333332,-0.09739583333333332,-0.09739583333333332,-0.09739583333333332,-0.09739583333333332,-0.09739583333333332,-0.09739583333333332,-0.09739583333333332,-0.09739583333333332,-0.09739583333333332,-0.09739583333333332,-0.09895833333333334,-0.09427083333333333,-0.08854166666666667,-0.078125,-0.06458333333333333,-0.04635416666666666,-0.0234375,0.0010416666666666667,0.01979166666666667,0.035416666666666666,0.046875,0.05416666666666667,0.060937500000000006,0.06822916666666666,0.0734375,0.07552083333333334,0.07760416666666667,0.08020833333333334,0.08437499999999999,0.08906249999999999,0.09270833333333332]","[-0.3,-0.3,-0.3,-0.3,-0.3,-0.3,-0.3,-0.3,-0.3,-0.3,-0.3,-0.3,-0.3,-0.3,-0.3,-0.3,-0.3,-0.3,-0.3,-0.3,-0.3,-0.3,-0.3,-0.3,-0.3,-0.3,-0.3,-0.3,-0.3,-0.3,-0.3,-0.3,-0.3,-0.3,-0.3,-0.3,-0.3,-0.3,-0.3,-0.3,-0.3,-0.3,-0.3,-0.3,-0.3,-0.3,-0.3,-0.3,-0.3,-0.3,-0.3]",80,0,1,hit,1,1,4,,0.04,0.105796188,0.0890625,0.016733688,-1.21431E-17,0.3,hor,,,39.2538,[],[],[],[],[],[],0,0,0,0,1,0.4,,,,,
,1,1,1,2022-10-27_12h17.24.131,bounceV3,2022.2.4,Win32,61.05378839,,10,[-0.07407407407407407],[0.13148148148148148],[1],[0],[0],[0.8625000000000043],"[0,0,0,0,0,0,0,0,0,0,0,0,0,0,0,0,0,0,0,0,0,0,0,0,0,1,1,1,1,1,1,1,1,1,1,1,1,1,1,1,1,1,1,1,1,1,1,1,1,1,1]","[-0.10579618842507904,-0.10156434088807588,-0.09733249335107272,-0.09310064581406956,-0.0888687982770664,-0.08463695074006324,-0.08040510320306007,-0.07617325566605691,-0.07194140812905375,-0.06770956059205059,-0.06347771305504743,-0.05924586551804427,-0.05501401798104111,-0.05078217044403795,-0.046550322907034786,-0.042318475370031625,-0.038086627833028464,-0.0338547802960253,-0.02962293275902214,-0.02539108522201898,-0.02115923768501582,-0.016927390148012658,-0.012695542611009497,-0.008463695074006336,-0.004231847537003174,-1.214306433183765e-17,0.004231847537003147,0.008463695074006307,0.012695542611009466,0.016927390148012623,0.021159237685015785,0.025391085222018946,0.029622932759022107,0.03385478029602527,0.03808662783302843,0.04231847537003159,0.04655032290703475,0.05078217044403791,0.05501401798104107,0.059245865518044234,0.06347771305504739,0.06770956059205055,0.07194140812905371,0.07617325566605687,0.08040510320306003,0.0846369507400632,0.08886879827706635,0.09310064581406952,0.09733249335107268,0.10156434088807584,0.105796188425079]","[-0.3,-0.27599999999999997,-0.25199999999999995,-0.22799999999999995,-0.20399999999999996,-0.17999999999999997,-0.15599999999999997,-0.13199999999999998,-0.10799999999999998,-0.08399999999999999,-0.05999999999999999,-0.03599999999999999,-0.01199999999999999,0.01200000000000001,0.03600000000000001,0.06000000000000001,0.08400000000000002,0.10800000000000001,0.132,0.156,0.18,0.204,0.22799999999999998,0.252,0.276,0.30000000000000004,0.276,0.252,0.228,0.20400000000000001,0.18000000000000002,0.15600000000000003,0.13200000000000003,0.10800000000000004,0.08400000000000005,0.060000000000000046,0.036000000000000046,0.012000000000000045,-0.011999999999999955,-0.035999999999999956,-0.059999999999999956,-0.08399999999999996,-0.10799999999999996,-0.13199999999999995,-0.15599999999999994,-0.17999999999999994,-0.20399999999999993,-0.22799999999999992,-0.25199999999999995,-0.27599999999999997,-0.3]","[-0.041666666666666664,-0.041666666666666664,-0.041666666666666664,-0.041666666666666664,-0.041666666666666664,-0.041666666666666664,-0.041666666666666664,-0.041666666666666664,-0.041666666666666664,-0.041666666666666664,-0.041666666666666664,-0.041666666666666664,-0.041666666666666664,-0.041666666666666664,-0.041666666666666664,-0.041666666666666664,-0.041666666666666664,-0.041666666666666664,-0.041666666666666664,-0.041666666666666664,-0.041666666666666664,-0.041666666666666664,-0.042187499999999996,-0.042187499999999996,-0.042187499999999996,-0.042187499999999996,-0.042187499999999996,-0.042187499999999996,-0.042187499999999996,-0.041666666666666664,-0.0390625,-0.0328125,-0.0265625,-0.017708333333333333,-0.005208333333333333,0.007291666666666667,0.018229166666666664,0.026041666666666664,0.03333333333333333,0.04114583333333333,0.046875,0.05208333333333333,0.06458333333333333,0.08229166666666667,0.09739583333333332,0.10572916666666667,0.109375,0.11041666666666666,0.1109375,0.1109375,0.109375]","[-0.3,-0.3,-0.3,-0.3,-0.3,-0.3,-0.3,-0.3,-0.3,-0.3,-0.3,-0.3,-0.3,-0.3,-0.3,-0.3,-0.3,-0.3,-0.3,-0.3,-0.3,-0.3,-0.3,-0.3,-0.3,-0.3,-0.3,-0.3,-0.3,-0.3,-0.3,-0.3,-0.3,-0.3,-0.3,-0.3,-0.3,-0.3,-0.3,-0.3,-0.3,-0.3,-0.3,-0.3,-0.3,-0.3,-0.3,-0.3,-0.3,-0.3,-0.3]",80,0,1,hit,1,2,4,,0.04,0.105796188,0.1109375,-0.005141312,-1.21431E-17,0.3,hor,,,40.9556,[],[],[],[],[],[],0,1,1,1,1,5,,,,,
,1,1,1,2022-10-27_12h17.24.131,bounceV3,2022.2.4,Win32,61.05378839,,,,,,,,,,,,,,,,,,,,,,,,,,,,,,,,,,,,,,,,,,,,3,0,3,0,1
,1,1,1,2022-10-27_12h17.24.131,bounceV3,2022.2.4,Win32,61.05378839,0.04,0,[-0.09166666666666666],[0.20092592592592592],[1],[0],[0],[2.2756999999880776],"[0,0,0,0,0,0,0,0,0,0,0,0,0,0,0,0,0,0,0,0,0,0,0,0,0,1,1,1,1,1,1,1,1,1,1,1,1,1,1,1,1,1,1,1,1,1,1,1,1,1,1,1,1,1,1,1,1,1,1,1,1,1,1,1,1,1,1,1,1,1,1,1,1,1,1,1,1,1,1,1,1]","[-0.1607695154586736,-0.15433873484032665,-0.1479079542219797,-0.14147717360363274,-0.13504639298528578,-0.12861561236693883,-0.12218483174859189,-0.11575405113024495,-0.10932327051189801,-0.10289248989355107,-0.09646170927520413,-0.09003092865685719,-0.08360014803851025,-0.07716936742016331,-0.07073858680181637,-0.06430780618346943,-0.05787702556512248,-0.051446244946775535,-0.04501546432842859,-0.03858468371008164,-0.032153903091734694,-0.02572312247338775,-0.019292341855040807,-0.012861561236693863,-0.0064307806183469185,2.6020852139652106e-17,0.015585782236740274,0.031171564473480524,0.046757346710220776,0.06234312894696102,0.07792891118370127,0.09351469342044151,0.10910047565718176,0.124686257893922,0.14027204013066225,0.1558578223674025,0.17144360460414276,0.18702938684088302,0.20261516907762328,0.21820095131436354,0.2337867335511038,0.24937251578784406,0.2649582980245843,0.28054408026132455,0.2961298624980648,0.311715644734805,0.32730142697154524,0.34288720920828547,0.3584729914450257,0.37405877368176593,0.38964455591850616,0.4052303381552464,0.4208161203919866,0.43640190262872686,0.4519876848654671,0.4675734671022073,0.48315924933894755,0.4987450315756878,0.5143308138124281,0.5299165960491683,0.5455023782859085,0.5610881605226488,0.576673942759389,0.5922597249961292,0.6078455072328695,0.6234312894696097,0.6390170717063499,0.6546028539430901,0.6701886361798304,0.6857744184165706,0.7013602006533108,0.7169459828900511,0.7325317651267913,0.7481175473635315,0.7637033296002718,0.779289111837012,0.7948748940737522,0.8104606763104925,0.8260464585472327,0.8416322407839729,0.8572180230207131]","[-0.3,-0.27599999999999997,-0.25199999999999995,-0.22799999999999995,-0.20399999999999996,-0.17999999999999997,-0.15599999999999997,-0.13199999999999998,-0.10799999999999998,-0.08399999999999999,-0.05999999999999999,-0.03599999999999999,-0.01199999999999999,0.01200000000000001,0.03600000000000001,0.06000000000000001,0.08400000000000002,0.10800000000000001,0.132,0.156,0.18,0.204,0.22799999999999998,0.252,0.276,0.30000000000000004,0.276,0.252,0.228,0.20400000000000001,0.18000000000000002,0.15600000000000003,0.13200000000000003,0.10800000000000004,0.08400000000000005,0.060000000000000046,0.036000000000000046,0.012000000000000045,-0.011999999999999955,-0.035999999999999956,-0.059999999999999956,-0.08399999999999996,-0.10799999999999996,-0.13199999999999995,-0.15599999999999994,-0.17999999999999994,-0.20399999999999993,-0.22799999999999992,-0.25199999999999995,-0.27599999999999997,-0.3,-0.324,-0.34800000000000003,-0.37200000000000005,-0.3960000000000001,-0.4200000000000001,-0.4440000000000001,-0.46800000000000014,-0.49200000000000016,-0.5160000000000001,-0.5400000000000001,-0.5640000000000002,-0.5880000000000002,-0.6120000000000002,-0.6360000000000002,-0.6600000000000003,-0.6840000000000003,-0.7080000000000003,-0.7320000000000003,-0.7560000000000003,-0.7800000000000004,-0.8040000000000004,-0.8280000000000004,-0.8520000000000004,-0.8760000000000004,-0.9000000000000005,-0.9240000000000005,-0.9480000000000005,-0.9720000000000005,-0.9960000000000006,-1.0200000000000005]","[-0.0515625,-0.0515625,-0.05104166666666667,-0.05104166666666667,-0.05104166666666667,-0.05104166666666667,-0.05104166666666667,-0.05104166666666667,-0.05104166666666667,-0.05104166666666667,-0.05104166666666667,-0.05104166666666667,-0.05104166666666667,-0.05104166666666667,-0.05104166666666667,-0.05104166666666667,-0.05104166666666667,-0.05104166666666667,-0.05104166666666667,-0.05104166666666667,-0.05104166666666667,-0.05104166666666667,-0.050520833333333334,-0.04895833333333333,-0.04635416666666666,-0.045312500000000006,-0.045312500000000006,-0.045312500000000006,-0.043229166666666666,-0.0390625,-0.0296875,-0.020312499999999997,-0.0078125,0.0067708333333333336,0.026041666666666664,0.04739583333333333,0.06927083333333334,0.09166666666666667,0.10885416666666665,0.11822916666666668,0.12447916666666667,0.13125,0.13958333333333334,0.15364583333333331,0.17135416666666667,0.18645833333333334,0.19843750000000002,0.20260416666666664,0.20677083333333332,0.22239583333333335,0.24947916666666667,0.27447916666666666,0.29218750000000004,0.30208333333333337,0.3140625,0.3354166666666667,0.35624999999999996,0.3692708333333333,0.37395833333333334,0.37395833333333334,0.3734375,0.37135416666666665,0.3703125,0.3703125,0.3703125,0.3703125,0.3703125,0.3697916666666667,0.3677083333333333,0.3614583333333333,0.35,0.3338541666666667,0.3130208333333333,0.29322916666666665,0.2677083333333333,0.23541666666666666,0.19739583333333333,0.15208333333333335,0.11979166666666667,0.09375,0.07135416666666666]","[-0.3,-0.3,-0.3,-0.3,-0.3,-0.3,-0.3,-0.3,-0.3,-0.3,-0.3,-0.3,-0.3,-0.3,-0.3,-0.3,-0.3,-0.3,-0.3,-0.3,-0.3,-0.3,-0.3,-0.3,-0.3,-0.3,-0.3,-0.3,-0.3,-0.3,-0.3,-0.3,-0.3,-0.3,-0.3,-0.3,-0.3,-0.3,-0.3,-0.3,-0.3,-0.3,-0.3,-0.3,-0.3,-0.3,-0.3,-0.3,-0.3,-0.3,-0.3,-0.3,-0.3,-0.3,-0.3,-0.3,-0.3,-0.3,-0.3,-0.3,-0.3,-0.3,-0.3,-0.3,-0.3,-0.3,-0.3,-0.3,-0.3,-0.3,-0.3,-0.3,-0.3,-0.3,-0.3,-0.3,-0.3,-0.3,-0.3,-0.3,-0.3]",75,9,1,miss,1,1,5,,0.04,0.389644556,0.222395833,0.167248723,2.60209E-17,0.3,hor,,,49.019,[],[],[],[],[],[],0,0,0,0,1,0.4,,,,,
,1,1,1,2022-10-27_12h17.24.131,bounceV3,2022.2.4,Win32,61.05378839,,0,[-0.021296296296296296],[0.26944444444444443],[1],[0],[0],[0.9628999999761589],"[0,0,0,0,0,0,0,0,0,0,0,0,0,0,0,0,0,0,0,0,0,0,0,0,0,1,1,1,1,1,1,1,1,1,1,1,1,1,1,1,1,1,1,1,1,1,1,1,1,1,1]","[-0.1607695154586736,-0.15433873484032665,-0.1479079542219797,-0.14147717360363274,-0.13504639298528578,-0.12861561236693883,-0.12218483174859189,-0.11575405113024495,-0.10932327051189801,-0.10289248989355107,-0.09646170927520413,-0.09003092865685719,-0.08360014803851025,-0.07716936742016331,-0.07073858680181637,-0.06430780618346943,-0.05787702556512248,-0.051446244946775535,-0.04501546432842859,-0.03858468371008164,-0.032153903091734694,-0.02572312247338775,-0.019292341855040807,-0.012861561236693863,-0.0064307806183469185,2.6020852139652106e-17,0.015585782236740274,0.031171564473480524,0.046757346710220776,0.06234312894696102,0.07792891118370127,0.09351469342044151,0.10910047565718176,0.124686257893922,0.14027204013066225,0.1558578223674025,0.17144360460414276,0.18702938684088302,0.20261516907762328,0.21820095131436354,0.2337867335511038,0.24937251578784406,0.2649582980245843,0.28054408026132455,0.2961298624980648,0.311715644734805,0.32730142697154524,0.34288720920828547,0.3584729914450257,0.37405877368176593,0.38964455591850616]","[-0.3,-0.27599999999999997,-0.25199999999999995,-0.22799999999999995,-0.20399999999999996,-0.17999999999999997,-0.15599999999999997,-0.13199999999999998,-0.10799999999999998,-0.08399999999999999,-0.05999999999999999,-0.03599999999999999,-0.01199999999999999,0.01200000000000001,0.03600000000000001,0.06000000000000001,0.08400000000000002,0.10800000000000001,0.132,0.156,0.18,0.204,0.22799999999999998,0.252,0.276,0.30000000000000004,0.276,0.252,0.228,0.20400000000000001,0.18000000000000002,0.15600000000000003,0.13200000000000003,0.10800000000000004,0.08400000000000005,0.060000000000000046,0.036000000000000046,0.012000000000000045,-0.011999999999999955,-0.035999999999999956,-0.059999999999999956,-0.08399999999999996,-0.10799999999999996,-0.13199999999999995,-0.15599999999999994,-0.17999999999999994,-0.20399999999999993,-0.22799999999999992,-0.25199999999999995,-0.27599999999999997,-0.3]","[-0.011979166666666666,-0.011979166666666666,-0.011979166666666666,-0.011979166666666666,-0.011979166666666666,-0.011979166666666666,-0.011979166666666666,-0.011979166666666666,-0.011979166666666666,-0.011979166666666666,-0.011979166666666666,-0.011979166666666666,-0.011979166666666666,-0.011979166666666666,-0.011979166666666666,-0.011979166666666666,-0.011979166666666666,-0.011979166666666666,-0.011979166666666666,-0.011979166666666666,-0.011979166666666666,-0.013020833333333332,-0.0140625,-0.0140625,-0.0140625,-0.0140625,-0.0140625,-0.0140625,-0.0140625,-0.0140625,-0.0140625,-0.0109375,0.0046875,0.033854166666666664,0.06979166666666667,0.11197916666666666,0.15885416666666666,0.225,0.29218750000000004,0.3453125,0.37552083333333336,0.3895833333333333,0.3984375,0.40625,0.41041666666666665,0.4161458333333333,0.421875,0.425,0.42916666666666664,0.4348958333333333,0.4369791666666667]","[-0.3,-0.3,-0.3,-0.3,-0.3,-0.3,-0.3,-0.3,-0.3,-0.3,-0.3,-0.3,-0.3,-0.3,-0.3,-0.3,-0.3,-0.3,-0.3,-0.3,-0.3,-0.3,-0.3,-0.3,-0.3,-0.3,-0.3,-0.3,-0.3,-0.3,-0.3,-0.3,-0.3,-0.3,-0.3,-0.3,-0.3,-0.3,-0.3,-0.3,-0.3,-0.3,-0.3,-0.3,-0.3,-0.3,-0.3,-0.3,-0.3,-0.3,-0.3]",75,9,1,hit,1,2,5,,0.04,0.389644556,0.434895833,-0.045251277,2.60209E-17,0.3,hor,,,50.8206,[],[],[],[],[],[],0,1,1,1,1,5,,,,,
,1,1,1,2022-10-27_12h17.24.131,bounceV3,2022.2.4,Win32,61.05378839,,,,,,,,,,,,,,,,,,,,,,,,,,,,,,,,,,,,,,,,,,,,4,0,4,0,1
,1,1,1,2022-10-27_12h17.24.131,bounceV3,2022.2.4,Win32,61.05378839,0.02,0,[0.07314814814814814],[0.34444444444444444],[1],[0],[0],[0.9995999999642322],"[0,0,0,0,0,0,0,0,0,0,0,0,0,0,0,0,0,0,0,0,0,0,0,0,0,1,1,1,1,1,1,1,1,1,1,1,1,1,1,1,1,1,1,1,1,1,1,1,1,1,1]","[-0.1607695154586736,-0.15433873484032665,-0.1479079542219797,-0.14147717360363274,-0.13504639298528578,-0.12861561236693883,-0.12218483174859189,-0.11575405113024495,-0.10932327051189801,-0.10289248989355107,-0.09646170927520413,-0.09003092865685719,-0.08360014803851025,-0.07716936742016331,-0.07073858680181637,-0.06430780618346943,-0.05787702556512248,-0.051446244946775535,-0.04501546432842859,-0.03858468371008164,-0.032153903091734694,-0.02572312247338775,-0.019292341855040807,-0.012861561236693863,-0.0064307806183469185,2.6020852139652106e-17,0.015585782236740274,0.031171564473480524,0.046757346710220776,0.06234312894696102,0.07792891118370127,0.09351469342044151,0.10910047565718176,0.124686257893922,0.14027204013066225,0.1558578223674025,0.17144360460414276,0.18702938684088302,0.20261516907762328,0.21820095131436354,0.2337867335511038,0.24937251578784406,0.2649582980245843,0.28054408026132455,0.2961298624980648,0.311715644734805,0.32730142697154524,0.34288720920828547,0.3584729914450257,0.37405877368176593,0.38964455591850616]","[-0.3,-0.27599999999999997,-0.25199999999999995,-0.22799999999999995,-0.20399999999999996,-0.17999999999999997,-0.15599999999999997,-0.13199999999999998,-0.10799999999999998,-0.08399999999999999,-0.05999999999999999,-0.03599999999999999,-0.01199999999999999,0.01200000000000001,0.03600000000000001,0.06000000000000001,0.08400000000000002,0.10800000000000001,0.132,0.156,0.18,0.204,0.22799999999999998,0.252,0.276,0.30000000000000004,0.276,0.252,0.228,0.20400000000000001,0.18000000000000002,0.15600000000000003,0.13200000000000003,0.10800000000000004,0.08400000000000005,0.060000000000000046,0.036000000000000046,0.012000000000000045,-0.011999999999999955,-0.035999999999999956,-0.059999999999999956,-0.08399999999999996,-0.10799999999999996,-0.13199999999999995,-0.15599999999999994,-0.17999999999999994,-0.20399999999999993,-0.22799999999999992,-0.25199999999999995,-0.27599999999999997,-0.3]","[0.04114583333333333,0.04114583333333333,0.04114583333333333,0.04114583333333333,0.04114583333333333,0.04114583333333333,0.04114583333333333,0.04114583333333333,0.04114583333333333,0.04114583333333333,0.04114583333333333,0.04114583333333333,0.04114583333333333,0.04114583333333333,0.04010416666666667,0.0390625,0.03802083333333334,0.03697916666666667,0.03697916666666667,0.03697916666666667,0.03697916666666667,0.03697916666666667,0.03697916666666667,0.03697916666666667,0.03697916666666667,0.03697916666666667,0.03697916666666667,0.03645833333333333,0.040624999999999994,0.04895833333333333,0.05520833333333333,0.05520833333333333,0.05625,0.059895833333333336,0.07395833333333333,0.1015625,0.13333333333333333,0.1640625,0.19270833333333334,0.2203125,0.2421875,0.26666666666666666,0.2947916666666666,0.31875,0.3380208333333334,0.34479166666666666,0.34479166666666666,0.34479166666666666,0.35052083333333334,0.3640625,0.38229166666666664]","[-0.3,-0.3,-0.3,-0.3,-0.3,-0.3,-0.3,-0.3,-0.3,-0.3,-0.3,-0.3,-0.3,-0.3,-0.3,-0.3,-0.3,-0.3,-0.3,-0.3,-0.3,-0.3,-0.3,-0.3,-0.3,-0.3,-0.3,-0.3,-0.3,-0.3,-0.3,-0.3,-0.3,-0.3,-0.3,-0.3,-0.3,-0.3,-0.3,-0.3,-0.3,-0.3,-0.3,-0.3,-0.3,-0.3,-0.3,-0.3,-0.3,-0.3,-0.3]",75,9,1,hit,1,1,6,,0.04,0.389644556,0.3640625,0.025582056,2.60209E-17,0.3,hor,,,54.2182,[],[],[],[],[],[],0,0,0,0,1,0.4,,,,,
,1,1,1,2022-10-27_12h17.24.131,bounceV3,2022.2.4,Win32,61.05378839,,5,[0.18611111111111112],[0.3888888888888889],[1],[0],[0],[0.6793999999761553],"[0,0,0,0,0,0,0,0,0,0,0,0,0,0,0,0,0,0,0,0,0,0,0,0,0,1,1,1,1,1,1,1,1,1,1,1,1,1,1,1,1,1,1,1,1,1,1,1,1,1,1]","[-0.10579618842507904,-0.10156434088807588,-0.09733249335107272,-0.09310064581406956,-0.0888687982770664,-0.08463695074006324,-0.08040510320306007,-0.07617325566605691,-0.07194140812905375,-0.06770956059205059,-0.06347771305504743,-0.05924586551804427,-0.05501401798104111,-0.05078217044403795,-0.046550322907034786,-0.042318475370031625,-0.038086627833028464,-0.0338547802960253,-0.02962293275902214,-0.02539108522201898,-0.02115923768501582,-0.016927390148012658,-0.012695542611009497,-0.008463695074006336,-0.004231847537003174,-1.214306433183765e-17,0.012761026359875477,0.025522052719750964,0.038283079079626456,0.05104410543950194,0.06380513179937743,0.07656615815925291,0.0893271845191284,0.10208821087900388,0.11484923723887937,0.12761026359875485,0.14037128995863035,0.15313231631850585,0.16589334267838135,0.17865436903825685,0.19141539539813235,0.20417642175800785,0.21693744811788335,0.22969847447775885,0.24245950083763435,0.2552205271975098,0.2679815535573853,0.28074257991726076,0.29350360627713623,0.3062646326370117,0.3190256589968872]","[-0.3,-0.27599999999999997,-0.25199999999999995,-0.22799999999999995,-0.20399999999999996,-0.17999999999999997,-0.15599999999999997,-0.13199999999999998,-0.10799999999999998,-0.08399999999999999,-0.05999999999999999,-0.03599999999999999,-0.01199999999999999,0.01200000000000001,0.03600000000000001,0.06000000000000001,0.08400000000000002,0.10800000000000001,0.132,0.156,0.18,0.204,0.22799999999999998,0.252,0.276,0.30000000000000004,0.276,0.252,0.228,0.20400000000000001,0.18000000000000002,0.15600000000000003,0.13200000000000003,0.10800000000000004,0.08400000000000005,0.060000000000000046,0.036000000000000046,0.012000000000000045,-0.011999999999999955,-0.035999999999999956,-0.059999999999999956,-0.08399999999999996,-0.10799999999999996,-0.13199999999999995,-0.15599999999999994,-0.17999999999999994,-0.20399999999999993,-0.22799999999999992,-0.25199999999999995,-0.27599999999999997,-0.3]","[0.1046875,0.1046875,0.1046875,0.1046875,0.1046875,0.1046875,0.1046875,0.1046875,0.1046875,0.1046875,0.1046875,0.1046875,0.1046875,0.1046875,0.1046875,0.1046875,0.1046875,0.1046875,0.1046875,0.1046875,0.1046875,0.1046875,0.1046875,0.1046875,0.1046875,0.10520833333333333,0.10572916666666667,0.10677083333333334,0.10885416666666665,0.11770833333333333,0.12864583333333335,0.14270833333333333,0.15729166666666666,0.18177083333333333,0.20989583333333334,0.23385416666666667,0.2546875,0.2677083333333333,0.27447916666666666,0.27708333333333335,0.2833333333333333,0.296875,0.31197916666666664,0.3234375,0.328125,0.3302083333333333,0.3302083333333333,0.3302083333333333,0.3302083333333333,0.3333333333333333,0.3348958333333333]","[-0.3,-0.3,-0.3,-0.3,-0.3,-0.3,-0.3,-0.3,-0.3,-0.3,-0.3,-0.3,-0.3,-0.3,-0.3,-0.3,-0.3,-0.3,-0.3,-0.3,-0.3,-0.3,-0.3,-0.3,-0.3,-0.3,-0.3,-0.3,-0.3,-0.3,-0.3,-0.3,-0.3,-0.3,-0.3,-0.3,-0.3,-0.3,-0.3,-0.3,-0.3,-0.3,-0.3,-0.3,-0.3,-0.3,-0.3,-0.3,-0.3,-0.3,-0.3]",80,9,1,hit,1,2,6,,0.04,0.319025659,0.333333333,-0.014307674,-1.21431E-17,0.3,hor,,,55.7352,[],[],[],[],[],[],0,1,1,1,1,5,,,,,
,1,1,1,2022-10-27_12h17.24.131,bounceV3,2022.2.4,Win32,61.05378839,,,,,,,,,,,,,,,,,,,,,,,,,,,,,,,,,,,,,,,,,,,,5,0,5,0,1
,1,1,1,2022-10-27_12h17.24.131,bounceV3,2022.2.4,Win32,61.05378839,0.04,0,[0.10648148148148148],[0.38981481481481484],[1],[0],[0],[1.2989999999999995],"[0,0,0,0,0,0,0,0,0,0,0,0,0,0,0,0,0,0,0,0,0,0,0,0,0,1,1,1,1,1,1,1,1,1,1,1,1,1,1,1,1,1,1,1,1,1,1,1,1,1,1]","[0.05249319811555451,0.05039347019093233,0.04829374226631015,0.04619401434168797,0.04409428641706579,0.04199455849244361,0.03989483056782143,0.03779510264319925,0.03569537471857707,0.03359564679395489,0.03149591886933271,0.029396190944710528,0.027296463020088348,0.025196735095466168,0.023097007170843988,0.020997279246221807,0.018897551321599627,0.016797823396977447,0.014698095472355267,0.012598367547733087,0.010498639623110907,0.008398911698488727,0.006299183773866547,0.004199455849244367,0.0020997279246221866,6.071532165918825e-18,-0.01018739558903051,-0.020374791178061027,-0.03056218676709154,-0.040749582356122055,-0.05093697794515257,-0.06112437353418308,-0.0713117691232136,-0.08149916471224412,-0.09168656030127464,-0.10187395589030517,-0.11206135147933569,-0.1222487470683662,-0.13243614265739673,-0.14262353824642723,-0.15281093383545774,-0.16299832942448825,-0.17318572501351875,-0.18337312060254926,-0.19356051619157977,-0.20374791178061027,-0.21393530736964078,-0.2241227029586713,-0.2343100985477018,-0.2444974941367323,-0.2546848897257628]","[-0.3,-0.27599999999999997,-0.25199999999999995,-0.22799999999999995,-0.20399999999999996,-0.17999999999999997,-0.15599999999999997,-0.13199999999999998,-0.10799999999999998,-0.08399999999999999,-0.05999999999999999,-0.03599999999999999,-0.01199999999999999,0.01200000000000001,0.03600000000000001,0.06000000000000001,0.08400000000000002,0.10800000000000001,0.132,0.156,0.18,0.204,0.22799999999999998,0.252,0.276,0.30000000000000004,0.276,0.252,0.228,0.20400000000000001,0.18000000000000002,0.15600000000000003,0.13200000000000003,0.10800000000000004,0.08400000000000005,0.060000000000000046,0.036000000000000046,0.012000000000000045,-0.011999999999999955,-0.035999999999999956,-0.059999999999999956,-0.08399999999999996,-0.10799999999999996,-0.13199999999999995,-0.15599999999999994,-0.17999999999999994,-0.20399999999999993,-0.22799999999999992,-0.25199999999999995,-0.27599999999999997,-0.3]","[0.059895833333333336,0.059895833333333336,0.059895833333333336,0.059895833333333336,0.059895833333333336,0.059895833333333336,0.059895833333333336,0.059895833333333336,0.059895833333333336,0.059895833333333336,0.059895833333333336,0.059895833333333336,0.059895833333333336,0.059895833333333336,0.059895833333333336,0.059895833333333336,0.059895833333333336,0.059895833333333336,0.059895833333333336,0.059895833333333336,0.059895833333333336,0.059895833333333336,0.059895833333333336,0.059895833333333336,0.059895833333333336,0.059895833333333336,0.058854166666666666,0.05416666666666667,0.050520833333333334,0.04635416666666666,0.04375,0.0375,0.0296875,0.019270833333333334,0.005729166666666667,-0.0046875,-0.009895833333333335,-0.013020833333333332,-0.016666666666666666,-0.02291666666666667,-0.03177083333333333,-0.04739583333333333,-0.06666666666666667,-0.08906249999999999,-0.1125,-0.1453125,-0.18802083333333333,-0.22916666666666666,-0.26614583333333336,-0.28645833333333337,-0.290625]","[-0.3,-0.3,-0.3,-0.3,-0.3,-0.3,-0.3,-0.3,-0.3,-0.3,-0.3,-0.3,-0.3,-0.3,-0.3,-0.3,-0.3,-0.3,-0.3,-0.3,-0.3,-0.3,-0.3,-0.3,-0.3,-0.3,-0.3,-0.3,-0.3,-0.3,-0.3,-0.3,-0.3,-0.3,-0.3,-0.3,-0.3,-0.3,-0.3,-0.3,-0.3,-0.3,-0.3,-0.3,-0.3,-0.3,-0.3,-0.3,-0.3,-0.3,-0.3]",-85,-9,1,hit,1,1,7,,0.04,-0.25468489,-0.286458333,0.031773444,6.07153E-18,0.3,hor,,,59.2697,[],[],[],[],[],[],0,0,0,0,1,0.4,,,,,
,1,1,1,2022-10-27_12h17.24.131,bounceV3,2022.2.4,Win32,61.05378839,,5,[-0.11388888888888889],[0.4546296296296296],[1],[0],[0],[0.8903999999761609],"[0,0,0,0,0,0,0,0,0,0,0,0,0,0,0,0,0,0,0,0,0,0,0,0,0,1,1,1,1,1,1,1,1,1,1,1,1,1,1,1,1,1,1,1,1,1,1,1,1,1,1,1,1,1,1,1,1,1,1,1,1,1,1,1,1,1,1,1,1,1,1,1,1,1,1,1,1,1,1,1]","[-0.21838214055972147,-0.2096468549373326,-0.20091156931494375,-0.1921762836925549,-0.18344099807016606,-0.17470571244777722,-0.16597042682538837,-0.15723514120299953,-0.14849985558061068,-0.13976456995822184,-0.131029284335833,-0.12229399871344414,-0.11355871309105528,-0.10482342746866642,-0.09608814184627756,-0.0873528562238887,-0.07861757060149985,-0.06988228497911099,-0.06114699935672213,-0.05241171373433327,-0.043676428111944415,-0.03494114248955556,-0.0262058568671667,-0.01747057124477784,-0.008735285622388983,-1.249000902703301e-16,0.018750855036161092,0.03750171007232231,0.056252565108483525,0.07500342014464474,0.09375427518080595,0.11250513021696718,0.1312559852531284,0.15000684028928962,0.16875769532545085,0.18750855036161207,0.2062594053977733,0.22501026043393452,0.24376111547009574,0.26251197050625696,0.28126282554241816,0.30001368057857936,0.31876453561474055,0.33751539065090175,0.35626624568706294,0.37501710072322414,0.39376795575938534,0.41251881079554653,0.4312696658317077,0.4500205208678689,0.4687713759040301,0.4875222309401913,0.5062730859763526,0.5250239410125138,0.5437747960486751,0.5625256510848363,0.5812765061209976,0.6000273611571588,0.6187782161933201,0.6375290712294813,0.6562799262656426,0.6750307813018038,0.6937816363379651,0.7125324913741263,0.7312833464102876,0.7500342014464488,0.7687850564826101,0.7875359115187713,0.8062867665549326,0.8250376215910938,0.8437884766272551,0.8625393316634163,0.8812901866995776,0.9000410417357388,0.9187918967719001,0.9375427518080613,0.9562936068442226,0.9750444618803839,0.9937953169165451,1.0125461719527062]","[-0.3,-0.27599999999999997,-0.25199999999999995,-0.22799999999999995,-0.20399999999999996,-0.17999999999999997,-0.15599999999999997,-0.13199999999999998,-0.10799999999999998,-0.08399999999999999,-0.05999999999999999,-0.03599999999999999,-0.01199999999999999,0.01200000000000001,0.03600000000000001,0.06000000000000001,0.08400000000000002,0.10800000000000001,0.132,0.156,0.18,0.204,0.22799999999999998,0.252,0.276,0.30000000000000004,0.276,0.252,0.228,0.20400000000000001,0.18000000000000002,0.15600000000000003,0.13200000000000003,0.10800000000000004,0.08400000000000005,0.060000000000000046,0.036000000000000046,0.012000000000000045,-0.011999999999999955,-0.035999999999999956,-0.059999999999999956,-0.08399999999999996,-0.10799999999999996,-0.13199999999999995,-0.15599999999999994,-0.17999999999999994,-0.20399999999999993,-0.22799999999999992,-0.25199999999999995,-0.27599999999999997,-0.3,-0.324,-0.34800000000000003,-0.37200000000000005,-0.3960000000000001,-0.4200000000000001,-0.4440000000000001,-0.46800000000000014,-0.49200000000000016,-0.5160000000000001,-0.5400000000000001,-0.5640000000000002,-0.5880000000000002,-0.6120000000000002,-0.6360000000000002,-0.6600000000000003,-0.6840000000000003,-0.7080000000000003,-0.7320000000000003,-0.7560000000000003,-0.7800000000000004,-0.8040000000000004,-0.8280000000000004,-0.8520000000000004,-0.8760000000000004,-0.9000000000000005,-0.9240000000000005,-0.9480000000000005,-0.9720000000000005,-0.9960000000000006]","[-0.0640625,-0.0640625,-0.06354166666666666,-0.06354166666666666,-0.06354166666666666,-0.06354166666666666,-0.06354166666666666,-0.06354166666666666,-0.06354166666666666,-0.06354166666666666,-0.06354166666666666,-0.06354166666666666,-0.06354166666666666,-0.06354166666666666,-0.06354166666666666,-0.06354166666666666,-0.06354166666666666,-0.06354166666666666,-0.06354166666666666,-0.06354166666666666,-0.06354166666666666,-0.06354166666666666,-0.06354166666666666,-0.06354166666666666,-0.06302083333333333,-0.06145833333333334,-0.058333333333333334,-0.05520833333333333,-0.05208333333333333,-0.04739583333333333,-0.03125,-0.005208333333333333,0.03333333333333333,0.07395833333333333,0.1109375,0.14010416666666667,0.16197916666666667,0.184375,0.21041666666666667,0.234375,0.24791666666666667,0.2520833333333333,0.2578125,0.2713541666666667,0.2817708333333333,0.28802083333333334,0.29218750000000004,0.29583333333333334,0.30572916666666666,0.32447916666666665,0.34322916666666664,0.35624999999999996,0.36041666666666666,0.36302083333333335,0.3651041666666666,0.37604166666666666,0.40104166666666663,0.43020833333333336,0.453125,0.46562499999999996,0.471875,0.4796875,0.48802083333333335,0.49947916666666664,0.49947916666666664,0.49947916666666664,0.49947916666666664,0.4984375,0.4953125,0.48802083333333335,0.4791666666666667,0.471875,0.4583333333333333,0.4354166666666666,0.4052083333333333,0.35833333333333334,0.3359375,0.30364583333333334,0.2760416666666667,0.24947916666666667]","[-0.3,-0.3,-0.3,-0.3,-0.3,-0.3,-0.3,-0.3,-0.3,-0.3,-0.3,-0.3,-0.3,-0.3,-0.3,-0.3,-0.3,-0.3,-0.3,-0.3,-0.3,-0.3,-0.3,-0.3,-0.3,-0.3,-0.3,-0.3,-0.3,-0.3,-0.3,-0.3,-0.3,-0.3,-0.3,-0.3,-0.3,-0.3,-0.3,-0.3,-0.3,-0.3,-0.3,-0.3,-0.3,-0.3,-0.3,-0.3,-0.3,-0.3,-0.3,-0.3,-0.3,-0.3,-0.3,-0.3,-0.3,-0.3,-0.3,-0.3,-0.3,-0.3,-0.3,-0.3,-0.3,-0.3,-0.3,-0.3,-0.3,-0.3,-0.3,-0.3,-0.3,-0.3,-0.3,-0.3,-0.3,-0.3,-0.3,-0.3]",70,9,1,miss,1,2,7,,0.04,0.468771376,0.324479167,0.144292209,-1.249E-16,0.3,hor,,,61.4812,[],[],[],[],[],[],0,1,1,1,1,5,,,,,
,1,1,1,2022-10-27_12h17.24.131,bounceV3,2022.2.4,Win32,61.05378839,,,,,,,,,,,,,,,,,,,,,,,,,,,,,,,,,,,,,,,,,,,,6,0,6,0,1
,1,1,1,2022-10-27_12h17.24.131,bounceV3,2022.2.4,Win32,61.05378839,0.02,0,[-0.03796296296296296],[0.3388888888888889],[1],[0],[0],[0.7061999999880726],"[0,0,0,0,0,0,0,0,0,0,0,0,0,0,0,0,0,0,0,0,0,0,0,0,0,1,1,1,1,1,1,1,1,1,1,1,1,1,1,1,1,1,1,1,1,1,1,1,1,1,1]","[0.05249319811555451,0.05039347019093233,0.04829374226631015,0.04619401434168797,0.04409428641706579,0.04199455849244361,0.03989483056782143,0.03779510264319925,0.03569537471857707,0.03359564679395489,0.03149591886933271,0.029396190944710528,0.027296463020088348,0.025196735095466168,0.023097007170843988,0.020997279246221807,0.018897551321599627,0.016797823396977447,0.014698095472355267,0.012598367547733087,0.010498639623110907,0.008398911698488727,0.006299183773866547,0.004199455849244367,0.0020997279246221866,6.071532165918825e-18,-0.01018739558903051,-0.020374791178061027,-0.03056218676709154,-0.040749582356122055,-0.05093697794515257,-0.06112437353418308,-0.0713117691232136,-0.08149916471224412,-0.09168656030127464,-0.10187395589030517,-0.11206135147933569,-0.1222487470683662,-0.13243614265739673,-0.14262353824642723,-0.15281093383545774,-0.16299832942448825,-0.17318572501351875,-0.18337312060254926,-0.19356051619157977,-0.20374791178061027,-0.21393530736964078,-0.2241227029586713,-0.2343100985477018,-0.2444974941367323,-0.2546848897257628]","[-0.3,-0.27599999999999997,-0.25199999999999995,-0.22799999999999995,-0.20399999999999996,-0.17999999999999997,-0.15599999999999997,-0.13199999999999998,-0.10799999999999998,-0.08399999999999999,-0.05999999999999999,-0.03599999999999999,-0.01199999999999999,0.01200000000000001,0.03600000000000001,0.06000000000000001,0.08400000000000002,0.10800000000000001,0.132,0.156,0.18,0.204,0.22799999999999998,0.252,0.276,0.30000000000000004,0.276,0.252,0.228,0.20400000000000001,0.18000000000000002,0.15600000000000003,0.13200000000000003,0.10800000000000004,0.08400000000000005,0.060000000000000046,0.036000000000000046,0.012000000000000045,-0.011999999999999955,-0.035999999999999956,-0.059999999999999956,-0.08399999999999996,-0.10799999999999996,-0.13199999999999995,-0.15599999999999994,-0.17999999999999994,-0.20399999999999993,-0.22799999999999992,-0.25199999999999995,-0.27599999999999997,-0.3]","[-0.021354166666666667,-0.021354166666666667,-0.021354166666666667,-0.021354166666666667,-0.021354166666666667,-0.021354166666666667,-0.021354166666666667,-0.021354166666666667,-0.021354166666666667,-0.021354166666666667,-0.021354166666666667,-0.021354166666666667,-0.021354166666666667,-0.021354166666666667,-0.021354166666666667,-0.021354166666666667,-0.021354166666666667,-0.021354166666666667,-0.021354166666666667,-0.021354166666666667,-0.021354166666666667,-0.020312499999999997,-0.0125,-0.005729166666666667,0.0005208333333333333,0.0036458333333333334,0.004166666666666667,0.0046875,0.004166666666666667,0.004166666666666667,0.003125,0.0010416666666666667,-0.0036458333333333334,-0.0067708333333333336,-0.007291666666666667,-0.007291666666666667,-0.007291666666666667,-0.007291666666666667,-0.0078125,-0.008854166666666666,-0.013541666666666667,-0.02395833333333333,-0.04114583333333333,-0.059895833333333336,-0.08697916666666666,-0.11927083333333333,-0.15,-0.16979166666666667,-0.18489583333333334,-0.20677083333333332,-0.23541666666666666]","[-0.3,-0.3,-0.3,-0.3,-0.3,-0.3,-0.3,-0.3,-0.3,-0.3,-0.3,-0.3,-0.3,-0.3,-0.3,-0.3,-0.3,-0.3,-0.3,-0.3,-0.3,-0.3,-0.3,-0.3,-0.3,-0.3,-0.3,-0.3,-0.3,-0.3,-0.3,-0.3,-0.3,-0.3,-0.3,-0.3,-0.3,-0.3,-0.3,-0.3,-0.3,-0.3,-0.3,-0.3,-0.3,-0.3,-0.3,-0.3,-0.3,-0.3,-0.3]",-85,-9,1,hit,1,1,8,,0.04,-0.25468489,-0.206770833,-0.047914056,6.07153E-18,0.3,hor,,,76.8623,[],[],[],[],[],[],0,0,0,0,1,0.4,,,,,
,1,1,1,2022-10-27_12h17.24.131,bounceV3,2022.2.4,Win32,61.05378839,,5,[-0.20462962962962963],[0.3592592592592593],[1],[0],[0],[0.8993000000119196],"[0,0,0,0,0,0,0,0,0,0,0,0,0,0,0,0,0,0,0,0,0,0,0,0,0,1,1,1,1,1,1,1,1,1,1,1,1,1,1,1,1,1,1,1,1,1,1,1,1,1,1,1,1,1,1,1,1,1,1,1,1,1,1,1,1,1,1,1,1,1,1,1,1,1,1,1,1,1,1,1,1]","[-0.1607695154586736,-0.15433873484032665,-0.1479079542219797,-0.14147717360363274,-0.13504639298528578,-0.12861561236693883,-0.12218483174859189,-0.11575405113024495,-0.10932327051189801,-0.10289248989355107,-0.09646170927520413,-0.09003092865685719,-0.08360014803851025,-0.07716936742016331,-0.07073858680181637,-0.06430780618346943,-0.05787702556512248,-0.051446244946775535,-0.04501546432842859,-0.03858468371008164,-0.032153903091734694,-0.02572312247338775,-0.019292341855040807,-0.012861561236693863,-0.0064307806183469185,2.6020852139652106e-17,0.015585782236740274,0.031171564473480524,0.046757346710220776,0.06234312894696102,0.07792891118370127,0.09351469342044151,0.10910047565718176,0.124686257893922,0.14027204013066225,0.1558578223674025,0.17144360460414276,0.18702938684088302,0.20261516907762328,0.21820095131436354,0.2337867335511038,0.24937251578784406,0.2649582980245843,0.28054408026132455,0.2961298624980648,0.311715644734805,0.32730142697154524,0.34288720920828547,0.3584729914450257,0.37405877368176593,0.38964455591850616,0.4052303381552464,0.4208161203919866,0.43640190262872686,0.4519876848654671,0.4675734671022073,0.48315924933894755,0.4987450315756878,0.5143308138124281,0.5299165960491683,0.5455023782859085,0.5610881605226488,0.576673942759389,0.5922597249961292,0.6078455072328695,0.6234312894696097,0.6390170717063499,0.6546028539430901,0.6701886361798304,0.6857744184165706,0.7013602006533108,0.7169459828900511,0.7325317651267913,0.7481175473635315,0.7637033296002718,0.779289111837012,0.7948748940737522,0.8104606763104925,0.8260464585472327,0.8416322407839729,0.8572180230207131]","[-0.3,-0.27599999999999997,-0.25199999999999995,-0.22799999999999995,-0.20399999999999996,-0.17999999999999997,-0.15599999999999997,-0.13199999999999998,-0.10799999999999998,-0.08399999999999999,-0.05999999999999999,-0.03599999999999999,-0.01199999999999999,0.01200000000000001,0.03600000000000001,0.06000000000000001,0.08400000000000002,0.10800000000000001,0.132,0.156,0.18,0.204,0.22799999999999998,0.252,0.276,0.30000000000000004,0.276,0.252,0.228,0.20400000000000001,0.18000000000000002,0.15600000000000003,0.13200000000000003,0.10800000000000004,0.08400000000000005,0.060000000000000046,0.036000000000000046,0.012000000000000045,-0.011999999999999955,-0.035999999999999956,-0.059999999999999956,-0.08399999999999996,-0.10799999999999996,-0.13199999999999995,-0.15599999999999994,-0.17999999999999994,-0.20399999999999993,-0.22799999999999992,-0.25199999999999995,-0.27599999999999997,-0.3,-0.324,-0.34800000000000003,-0.37200000000000005,-0.3960000000000001,-0.4200000000000001,-0.4440000000000001,-0.46800000000000014,-0.49200000000000016,-0.5160000000000001,-0.5400000000000001,-0.5640000000000002,-0.5880000000000002,-0.6120000000000002,-0.6360000000000002,-0.6600000000000003,-0.6840000000000003,-0.7080000000000003,-0.7320000000000003,-0.7560000000000003,-0.7800000000000004,-0.8040000000000004,-0.8280000000000004,-0.8520000000000004,-0.8760000000000004,-0.9000000000000005,-0.9240000000000005,-0.9480000000000005,-0.9720000000000005,-0.9960000000000006,-1.0200000000000005]","[-0.11510416666666667,-0.11510416666666667,-0.11510416666666667,-0.11510416666666667,-0.11510416666666667,-0.11510416666666667,-0.11510416666666667,-0.11510416666666667,-0.11510416666666667,-0.11510416666666667,-0.11510416666666667,-0.11510416666666667,-0.11510416666666667,-0.11510416666666667,-0.11510416666666667,-0.11510416666666667,-0.11510416666666667,-0.11510416666666667,-0.11510416666666667,-0.11510416666666667,-0.11510416666666667,-0.11510416666666667,-0.11197916666666666,-0.10520833333333333,-0.09427083333333333,-0.07708333333333334,-0.053125,-0.0234375,0.0109375,0.04479166666666667,0.07604166666666667,0.109375,0.14270833333333333,0.17708333333333334,0.20364583333333333,0.22395833333333331,0.2375,0.2421875,0.2421875,0.24270833333333333,0.24635416666666665,0.25520833333333337,0.2625,0.26458333333333334,0.2682291666666667,0.2796875,0.29010416666666666,0.29375,0.2942708333333333,0.2947916666666666,0.296875,0.3041666666666667,0.3130208333333333,0.32187499999999997,0.3348958333333333,0.35520833333333335,0.37864583333333335,0.4041666666666667,0.42291666666666666,0.434375,0.44895833333333335,0.4635416666666667,0.47239583333333335,0.4770833333333333,0.47760416666666666,0.47760416666666666,0.47760416666666666,0.47760416666666666,0.47760416666666666,0.4770833333333333,0.4770833333333333,0.4734375,0.46458333333333335,0.44947916666666665,0.42864583333333334,0.3989583333333333,0.36302083333333335,0.32656250000000003,0.284375,0.2453125,0.21197916666666666]","[-0.3,-0.3,-0.3,-0.3,-0.3,-0.3,-0.3,-0.3,-0.3,-0.3,-0.3,-0.3,-0.3,-0.3,-0.3,-0.3,-0.3,-0.3,-0.3,-0.3,-0.3,-0.3,-0.3,-0.3,-0.3,-0.3,-0.3,-0.3,-0.3,-0.3,-0.3,-0.3,-0.3,-0.3,-0.3,-0.3,-0.3,-0.3,-0.3,-0.3,-0.3,-0.3,-0.3,-0.3,-0.3,-0.3,-0.3,-0.3,-0.3,-0.3,-0.3,-0.3,-0.3,-0.3,-0.3,-0.3,-0.3,-0.3,-0.3,-0.3,-0.3,-0.3,-0.3,-0.3,-0.3,-0.3,-0.3,-0.3,-0.3,-0.3,-0.3,-0.3,-0.3,-0.3,-0.3,-0.3,-0.3,-0.3,-0.3,-0.3,-0.3]",75,9,1,miss,1,2,8,,0.04,0.389644556,0.294791667,0.094852889,2.60209E-17,0.3,hor,,,79.0954,[],[],[],[],[],[],0,1,1,1,1,5,,,,,
,1,1,1,2022-10-27_12h17.24.131,bounceV3,2022.2.4,Win32,61.05378839,,,,,,,,,,,,,,,,,,,,,,,,,,,,,,,,,,,,,,,,,,,,7,0,7,0,1
,1,1,1,2022-10-27_12h17.24.131,bounceV3,2022.2.4,Win32,61.05378839,,,,,,,,,,,,,,,,,,,,,,,,,,,,,,,,,,,,,,,,,,,,,,,,
