Browser,participant,Group,Day,date,expName,psychopyVersion,OS,frameRate,hitPercent,pointsGiven,fixMouse.x,fixMouse.y,fixMouse.leftButton,fixMouse.midButton,fixMouse.rightButton,fixMouse.time,bounceDirArr,ballPosX,ballPosY,paddlePosX,paddlePosY,alphaChoice,pertChoice,horOrTilt,hitOrMiss,trialType,trialsNum,tasksNum,trialRepeat,ballSpeed,interceptBall,interceptPaddle,interceptDelta,wallBounceX,wallBounceY,wallOrient,connectTime,bounceTime,cumulativetime,trialMouse.x,trialMouse.y,trialMouse.leftButton,trialMouse.midButton,trialMouse.rightButton,trialMouse.time,trials.thisRepN,trials.thisTrialN,trials.thisN,trials.thisIndex,trials.ran,Sound,tasks.thisRepN,tasks.thisTrialN,tasks.thisN,tasks.thisIndex,tasks.ran
Chrome,1,2,1,2022-10-27_12h26.35.994,bounceV3,2022.2.4,Win32,60.10699044,,,,,,,,,,,,,,,,,,,,,,,,,,,,,,,,,,,,,,,,,,,,,,,,
,1,2,1,2022-10-27_12h26.35.994,bounceV3,2022.2.4,Win32,60.10699044,2,0,[],[],[],[],[],[],"[0,0,0,0,0,0,0,0,0,0,0,0,0,0,0,0,0,0,0,0,0,0,0,0,0,1,1,1,1,1,1,1,1,1,1,1,1,1,1,1,1,1,1,1,1,1,1,1,1,1,1]","[-0.10579618842507904,-0.10156434088807588,-0.09733249335107272,-0.09310064581406956,-0.0888687982770664,-0.08463695074006324,-0.08040510320306007,-0.07617325566605691,-0.07194140812905375,-0.06770956059205059,-0.06347771305504743,-0.05924586551804427,-0.05501401798104111,-0.05078217044403795,-0.046550322907034786,-0.042318475370031625,-0.038086627833028464,-0.0338547802960253,-0.02962293275902214,-0.02539108522201898,-0.02115923768501582,-0.016927390148012658,-0.012695542611009497,-0.008463695074006336,-0.004231847537003174,-1.214306433183765e-17,0.004231847537003147,0.008463695074006307,0.012695542611009466,0.016927390148012623,0.021159237685015785,0.025391085222018946,0.029622932759022107,0.03385478029602527,0.03808662783302843,0.04231847537003159,0.04655032290703475,0.05078217044403791,0.05501401798104107,0.059245865518044234,0.06347771305504739,0.06770956059205055,0.07194140812905371,0.07617325566605687,0.08040510320306003,0.0846369507400632,0.08886879827706635,0.09310064581406952,0.09733249335107268,0.10156434088807584,0.105796188425079]","[-0.3,-0.27599999999999997,-0.25199999999999995,-0.22799999999999995,-0.20399999999999996,-0.17999999999999997,-0.15599999999999997,-0.13199999999999998,-0.10799999999999998,-0.08399999999999999,-0.05999999999999999,-0.03599999999999999,-0.01199999999999999,0.01200000000000001,0.03600000000000001,0.06000000000000001,0.08400000000000002,0.10800000000000001,0.132,0.156,0.18,0.204,0.22799999999999998,0.252,0.276,0.30000000000000004,0.276,0.252,0.228,0.20400000000000001,0.18000000000000002,0.15600000000000003,0.13200000000000003,0.10800000000000004,0.08400000000000005,0.060000000000000046,0.036000000000000046,0.012000000000000045,-0.011999999999999955,-0.035999999999999956,-0.059999999999999956,-0.08399999999999996,-0.10799999999999996,-0.13199999999999995,-0.15599999999999994,-0.17999999999999994,-0.20399999999999993,-0.22799999999999992,-0.25199999999999995,-0.27599999999999997,-0.3]","[-0.49947916666666664,-0.49947916666666664,-0.49947916666666664,-0.49947916666666664,-0.49947916666666664,-0.49947916666666664,-0.49947916666666664,-0.49947916666666664,-0.49947916666666664,-0.49947916666666664,-0.49947916666666664,-0.49947916666666664,-0.49947916666666664,-0.49947916666666664,-0.49947916666666664,-0.49947916666666664,-0.49947916666666664,-0.49947916666666664,-0.49947916666666664,-0.49947916666666664,-0.49947916666666664,-0.49895833333333334,-0.49687499999999996,-0.4895833333333333,-0.471875,-0.4453125,-0.40625,-0.35520833333333335,-0.30364583333333334,-0.25520833333333337,-0.21354166666666669,-0.17447916666666666,-0.14010416666666667,-0.1015625,-0.065625,-0.034374999999999996,-0.0109375,0.00625,0.021875,0.03645833333333333,0.04895833333333333,0.05677083333333334,0.057812499999999996,0.057812499999999996,0.059375,0.07135416666666666,0.08541666666666667,0.09895833333333334,0.1046875,0.1046875,0.1046875]","[-0.3,-0.3,-0.3,-0.3,-0.3,-0.3,-0.3,-0.3,-0.3,-0.3,-0.3,-0.3,-0.3,-0.3,-0.3,-0.3,-0.3,-0.3,-0.3,-0.3,-0.3,-0.3,-0.3,-0.3,-0.3,-0.3,-0.3,-0.3,-0.3,-0.3,-0.3,-0.3,-0.3,-0.3,-0.3,-0.3,-0.3,-0.3,-0.3,-0.3,-0.3,-0.3,-0.3,-0.3,-0.3,-0.3,-0.3,-0.3,-0.3,-0.3,-0.3]",80,0,2,hit,1,1,1,,0.04,0.105796188,0.1046875,0.001108688,-1.21431E-17,0.3,hor,,,4.7848,[],[],[],[],[],[],0,0,0,1,1,5,,,,,
,1,2,1,2022-10-27_12h26.35.994,bounceV3,2022.2.4,Win32,60.10699044,,10,[],[],[],[],[],[],"[0,0,0,0,0,0,0,0,0,0,0,0,0,0,0,0,0,0,0,0,0,0,0,0,0,1,1,1,1,1,1,1,1,1,1,1,1,1,1,1,1,1,1,1,1,1,1,1,1,1,1]","[0.10579618842507904,0.10156434088807588,0.09733249335107272,0.09310064581406956,0.0888687982770664,0.08463695074006324,0.08040510320306007,0.07617325566605691,0.07194140812905375,0.06770956059205059,0.06347771305504743,0.05924586551804427,0.05501401798104111,0.05078217044403795,0.046550322907034786,0.042318475370031625,0.038086627833028464,0.0338547802960253,0.02962293275902214,0.02539108522201898,0.02115923768501582,0.016927390148012658,0.012695542611009497,0.008463695074006336,0.004231847537003174,1.214306433183765e-17,-0.004231847537003147,-0.008463695074006307,-0.012695542611009466,-0.016927390148012623,-0.021159237685015785,-0.025391085222018946,-0.029622932759022107,-0.03385478029602527,-0.03808662783302843,-0.04231847537003159,-0.04655032290703475,-0.05078217044403791,-0.05501401798104107,-0.059245865518044234,-0.06347771305504739,-0.06770956059205055,-0.07194140812905371,-0.07617325566605687,-0.08040510320306003,-0.0846369507400632,-0.08886879827706635,-0.09310064581406952,-0.09733249335107268,-0.10156434088807584,-0.105796188425079]","[-0.3,-0.27599999999999997,-0.25199999999999995,-0.22799999999999995,-0.20399999999999996,-0.17999999999999997,-0.15599999999999997,-0.13199999999999998,-0.10799999999999998,-0.08399999999999999,-0.05999999999999999,-0.03599999999999999,-0.01199999999999999,0.01200000000000001,0.03600000000000001,0.06000000000000001,0.08400000000000002,0.10800000000000001,0.132,0.156,0.18,0.204,0.22799999999999998,0.252,0.276,0.30000000000000004,0.276,0.252,0.228,0.20400000000000001,0.18000000000000002,0.15600000000000003,0.13200000000000003,0.10800000000000004,0.08400000000000005,0.060000000000000046,0.036000000000000046,0.012000000000000045,-0.011999999999999955,-0.035999999999999956,-0.059999999999999956,-0.08399999999999996,-0.10799999999999996,-0.13199999999999995,-0.15599999999999994,-0.17999999999999994,-0.20399999999999993,-0.22799999999999992,-0.25199999999999995,-0.27599999999999997,-0.3]","[0.49947916666666664,0.49947916666666664,0.49947916666666664,0.49947916666666664,0.49947916666666664,0.49947916666666664,0.49947916666666664,0.49947916666666664,0.49947916666666664,0.49947916666666664,0.49947916666666664,0.49947916666666664,0.49947916666666664,0.49947916666666664,0.49947916666666664,0.4947916666666667,0.48385416666666664,0.46770833333333334,0.45260416666666664,0.4390625,0.4223958333333333,0.3932291666666667,0.3536458333333333,0.30208333333333337,0.2526041666666667,0.20572916666666669,0.16614583333333335,0.1390625,0.11197916666666666,0.08802083333333333,0.0703125,0.05572916666666667,0.04375,0.0359375,0.029166666666666667,0.01979166666666667,0.0067708333333333336,-0.009375,-0.021875,-0.03229166666666666,-0.041666666666666664,-0.05104166666666667,-0.058854166666666666,-0.06822916666666666,-0.07760416666666667,-0.08802083333333333,-0.09531250000000001,-0.09739583333333332,-0.09739583333333332,-0.09739583333333332,-0.09791666666666667]","[-0.3,-0.3,-0.3,-0.3,-0.3,-0.3,-0.3,-0.3,-0.3,-0.3,-0.3,-0.3,-0.3,-0.3,-0.3,-0.3,-0.3,-0.3,-0.3,-0.3,-0.3,-0.3,-0.3,-0.3,-0.3,-0.3,-0.3,-0.3,-0.3,-0.3,-0.3,-0.3,-0.3,-0.3,-0.3,-0.3,-0.3,-0.3,-0.3,-0.3,-0.3,-0.3,-0.3,-0.3,-0.3,-0.3,-0.3,-0.3,-0.3,-0.3,-0.3]",-80,0,2,hit,1,2,1,,0.04,-0.105796188,-0.097395833,-0.008400355,1.21431E-17,0.3,hor,,,8.8127,[],[],[],[],[],[],0,1,1,0,1,0.4,,,,,
,1,2,1,2022-10-27_12h26.35.994,bounceV3,2022.2.4,Win32,60.10699044,,,,,,,,,,,,,,,,,,,,,,,,,,,,,,,,,,,,,,,,,,,,0,0,0,0,1
,1,2,1,2022-10-27_12h26.35.994,bounceV3,2022.2.4,Win32,60.10699044,0.04,0,[],[],[],[],[],[],"[0,0,0,0,0,0,0,0,0,0,0,0,0,0,0,0,0,0,0,0,0,0,0,0,0,1,1,1,1,1,1,1,1,1,1,1,1,1,1,1,1,1,1,1,1,1,1,1,1,1,1]","[-0.1607695154586736,-0.15433873484032665,-0.1479079542219797,-0.14147717360363274,-0.13504639298528578,-0.12861561236693883,-0.12218483174859189,-0.11575405113024495,-0.10932327051189801,-0.10289248989355107,-0.09646170927520413,-0.09003092865685719,-0.08360014803851025,-0.07716936742016331,-0.07073858680181637,-0.06430780618346943,-0.05787702556512248,-0.051446244946775535,-0.04501546432842859,-0.03858468371008164,-0.032153903091734694,-0.02572312247338775,-0.019292341855040807,-0.012861561236693863,-0.0064307806183469185,2.6020852139652106e-17,0.0064307806183469705,0.012861561236693915,0.01929234185504086,0.025723122473387802,0.03215390309173475,0.038584683710081696,0.045015464328428643,0.05144624494677559,0.05787702556512254,0.06430780618346948,0.07073858680181642,0.07716936742016337,0.0836001480385103,0.09003092865685725,0.09646170927520419,0.10289248989355113,0.10932327051189807,0.115754051130245,0.12218483174859195,0.1286156123669389,0.13504639298528584,0.1414771736036328,0.14790795422197975,0.1543387348403267,0.16076951545867366]","[-0.3,-0.27599999999999997,-0.25199999999999995,-0.22799999999999995,-0.20399999999999996,-0.17999999999999997,-0.15599999999999997,-0.13199999999999998,-0.10799999999999998,-0.08399999999999999,-0.05999999999999999,-0.03599999999999999,-0.01199999999999999,0.01200000000000001,0.03600000000000001,0.06000000000000001,0.08400000000000002,0.10800000000000001,0.132,0.156,0.18,0.204,0.22799999999999998,0.252,0.276,0.30000000000000004,0.276,0.252,0.228,0.20400000000000001,0.18000000000000002,0.15600000000000003,0.13200000000000003,0.10800000000000004,0.08400000000000005,0.060000000000000046,0.036000000000000046,0.012000000000000045,-0.011999999999999955,-0.035999999999999956,-0.059999999999999956,-0.08399999999999996,-0.10799999999999996,-0.13199999999999995,-0.15599999999999994,-0.17999999999999994,-0.20399999999999993,-0.22799999999999992,-0.25199999999999995,-0.27599999999999997,-0.3]","[-0.5,-0.5,-0.5,-0.5,-0.5,-0.5,-0.5,-0.5,-0.5,-0.5,-0.5,-0.5,-0.5,-0.5,-0.5,-0.5,-0.5,-0.5,-0.49947916666666664,-0.4864583333333333,-0.46562499999999996,-0.43333333333333335,-0.39166666666666666,-0.3453125,-0.28802083333333334,-0.22239583333333335,-0.1578125,-0.10208333333333335,-0.058854166666666666,-0.030208333333333334,-0.005729166666666667,0.015625,0.0328125,0.04375,0.053125,0.06458333333333333,0.078125,0.09583333333333333,0.11927083333333333,0.14375,0.16302083333333334,0.17812499999999998,0.18125000000000002,0.18125000000000002,0.18072916666666666,0.18125000000000002,0.184375,0.18697916666666667,0.1875,0.18802083333333333,0.18854166666666666]","[-0.3,-0.3,-0.3,-0.3,-0.3,-0.3,-0.3,-0.3,-0.3,-0.3,-0.3,-0.3,-0.3,-0.3,-0.3,-0.3,-0.3,-0.3,-0.3,-0.3,-0.3,-0.3,-0.3,-0.3,-0.3,-0.3,-0.3,-0.3,-0.3,-0.3,-0.3,-0.3,-0.3,-0.3,-0.3,-0.3,-0.3,-0.3,-0.3,-0.3,-0.3,-0.3,-0.3,-0.3,-0.3,-0.3,-0.3,-0.3,-0.3,-0.3,-0.3]",75,0,2,hit,1,1,2,,0.04,0.160769515,0.188020833,-0.027251318,2.60209E-17,0.3,hor,,,14.9628,[],[],[],[],[],[],0,0,0,0,1,0.4,,,,,
,1,2,1,2022-10-27_12h26.35.994,bounceV3,2022.2.4,Win32,60.10699044,,5,[],[],[],[],[],[],"[0,0,0,0,0,0,0,0,0,0,0,0,0,0,0,0,0,0,0,0,0,0,0,0,0,1,1,1,1,1,1,1,1,1,1,1,1,1,1,1,1,1,1,1,1,1,1,1,1,1,1,1,1,1,1,1,1,1,1,1,1,1,1,1,1,1,1,1,1,1,1,1,1,1,1,1,1,1,1,1,1]","[-0.21838214055972147,-0.2096468549373326,-0.20091156931494375,-0.1921762836925549,-0.18344099807016606,-0.17470571244777722,-0.16597042682538837,-0.15723514120299953,-0.14849985558061068,-0.13976456995822184,-0.131029284335833,-0.12229399871344414,-0.11355871309105528,-0.10482342746866642,-0.09608814184627756,-0.0873528562238887,-0.07861757060149985,-0.06988228497911099,-0.06114699935672213,-0.05241171373433327,-0.043676428111944415,-0.03494114248955556,-0.0262058568671667,-0.01747057124477784,-0.008735285622388983,-1.249000902703301e-16,0.008735285622388731,0.017470571244777588,0.026205856867166442,0.0349411424895553,0.04367642811194416,0.05241171373433302,0.061146999356721875,0.06988228497911073,0.07861757060149958,0.08735285622388844,0.0960881418462773,0.10482342746866616,0.11355871309105502,0.12229399871344387,0.13102928433583272,0.13976456995822156,0.1484998555806104,0.15723514120299925,0.1659704268253881,0.17470571244777694,0.18344099807016578,0.19217628369255463,0.20091156931494347,0.20964685493733232,0.21838214055972116,0.22711742618211,0.23585271180449885,0.2445879974268877,0.25332328304927654,0.2620585686716654,0.2707938542940542,0.27952913991644307,0.2882644255388319,0.29699971116122076,0.3057349967836096,0.31447028240599845,0.3232055680283873,0.33194085365077614,0.340676139273165,0.3494114248955538,0.35814671051794267,0.3668819961403315,0.37561728176272036,0.3843525673851092,0.39308785300749804,0.4018231386298869,0.41055842425227573,0.4192937098746646,0.4280289954970534,0.43676428111944227,0.4454995667418311,0.45423485236421995,0.4629701379866088,0.47170542360899764,0.4804407092313865]","[-0.3,-0.27599999999999997,-0.25199999999999995,-0.22799999999999995,-0.20399999999999996,-0.17999999999999997,-0.15599999999999997,-0.13199999999999998,-0.10799999999999998,-0.08399999999999999,-0.05999999999999999,-0.03599999999999999,-0.01199999999999999,0.01200000000000001,0.03600000000000001,0.06000000000000001,0.08400000000000002,0.10800000000000001,0.132,0.156,0.18,0.204,0.22799999999999998,0.252,0.276,0.30000000000000004,0.276,0.252,0.228,0.20400000000000001,0.18000000000000002,0.15600000000000003,0.13200000000000003,0.10800000000000004,0.08400000000000005,0.060000000000000046,0.036000000000000046,0.012000000000000045,-0.011999999999999955,-0.035999999999999956,-0.059999999999999956,-0.08399999999999996,-0.10799999999999996,-0.13199999999999995,-0.15599999999999994,-0.17999999999999994,-0.20399999999999993,-0.22799999999999992,-0.25199999999999995,-0.27599999999999997,-0.3,-0.324,-0.34800000000000003,-0.37200000000000005,-0.3960000000000001,-0.4200000000000001,-0.4440000000000001,-0.46800000000000014,-0.49200000000000016,-0.5160000000000001,-0.5400000000000001,-0.5640000000000002,-0.5880000000000002,-0.6120000000000002,-0.6360000000000002,-0.6600000000000003,-0.6840000000000003,-0.7080000000000003,-0.7320000000000003,-0.7560000000000003,-0.7800000000000004,-0.8040000000000004,-0.8280000000000004,-0.8520000000000004,-0.8760000000000004,-0.9000000000000005,-0.9240000000000005,-0.9480000000000005,-0.9720000000000005,-0.9960000000000006,-1.0200000000000005]","[-0.5,-0.5,-0.5,-0.5,-0.5,-0.5,-0.5,-0.5,-0.5,-0.5,-0.5,-0.5,-0.5,-0.4979166666666667,-0.48750000000000004,-0.4765625,-0.47135416666666663,-0.46614583333333337,-0.45208333333333334,-0.42916666666666664,-0.39427083333333335,-0.34635416666666663,-0.2911458333333333,-0.23072916666666668,-0.17291666666666666,-0.12083333333333333,-0.071875,-0.033854166666666664,-0.004166666666666667,0.018229166666666664,0.03958333333333334,0.057812499999999996,0.07708333333333334,0.096875,0.11302083333333333,0.12864583333333335,0.146875,0.171875,0.19947916666666665,0.22135416666666669,0.23802083333333335,0.24583333333333335,0.24947916666666667,0.2526041666666667,0.2578125,0.265625,0.27395833333333336,0.2786458333333333,0.2791666666666667,0.2796875,0.2796875,0.28020833333333334,0.28072916666666664,0.28072916666666664,0.28125,0.28125,0.2817708333333333,0.28229166666666666,0.28229166666666666,0.28229166666666666,0.2817708333333333,0.28020833333333334,0.2786458333333333,0.27760416666666665,0.2760416666666667,0.27447916666666666,0.27291666666666664,0.271875,0.2713541666666667,0.2703125,0.2703125,0.26979166666666665,0.26979166666666665,0.26927083333333335,0.2682291666666667,0.26510416666666664,0.25520833333333337,0.23333333333333334,0.20208333333333334,0.165625,0.12135416666666667]","[-0.3,-0.3,-0.3,-0.3,-0.3,-0.3,-0.3,-0.3,-0.3,-0.3,-0.3,-0.3,-0.3,-0.3,-0.3,-0.3,-0.3,-0.3,-0.3,-0.3,-0.3,-0.3,-0.3,-0.3,-0.3,-0.3,-0.3,-0.3,-0.3,-0.3,-0.3,-0.3,-0.3,-0.3,-0.3,-0.3,-0.3,-0.3,-0.3,-0.3,-0.3,-0.3,-0.3,-0.3,-0.3,-0.3,-0.3,-0.3,-0.3,-0.3,-0.3,-0.3,-0.3,-0.3,-0.3,-0.3,-0.3,-0.3,-0.3,-0.3,-0.3,-0.3,-0.3,-0.3,-0.3,-0.3,-0.3,-0.3,-0.3,-0.3,-0.3,-0.3,-0.3,-0.3,-0.3,-0.3,-0.3,-0.3,-0.3,-0.3,-0.3]",70,0,2,miss,1,2,2,,0.04,0.218382141,0.2796875,-0.061305359,-1.249E-16,0.3,hor,,,21.2272,[],[],[],[],[],[],0,1,1,1,1,5,,,,,
,1,2,1,2022-10-27_12h26.35.994,bounceV3,2022.2.4,Win32,60.10699044,,,,,,,,,,,,,,,,,,,,,,,,,,,,,,,,,,,,,,,,,,,,1,0,1,0,1
,1,2,1,2022-10-27_12h26.35.994,bounceV3,2022.2.4,Win32,60.10699044,0.02,0,[],[],[],[],[],[],"[0,0,0,0,0,0,0,0,0,0,0,0,0,0,0,0,0,0,0,0,0,0,0,0,0,1,1,1,1,1,1,1,1,1,1,1,1,1,1,1,1,1,1,1,1,1,1,1,1,1,1]","[-0.10579618842507904,-0.10156434088807588,-0.09733249335107272,-0.09310064581406956,-0.0888687982770664,-0.08463695074006324,-0.08040510320306007,-0.07617325566605691,-0.07194140812905375,-0.06770956059205059,-0.06347771305504743,-0.05924586551804427,-0.05501401798104111,-0.05078217044403795,-0.046550322907034786,-0.042318475370031625,-0.038086627833028464,-0.0338547802960253,-0.02962293275902214,-0.02539108522201898,-0.02115923768501582,-0.016927390148012658,-0.012695542611009497,-0.008463695074006336,-0.004231847537003174,-1.214306433183765e-17,0.004231847537003147,0.008463695074006307,0.012695542611009466,0.016927390148012623,0.021159237685015785,0.025391085222018946,0.029622932759022107,0.03385478029602527,0.03808662783302843,0.04231847537003159,0.04655032290703475,0.05078217044403791,0.05501401798104107,0.059245865518044234,0.06347771305504739,0.06770956059205055,0.07194140812905371,0.07617325566605687,0.08040510320306003,0.0846369507400632,0.08886879827706635,0.09310064581406952,0.09733249335107268,0.10156434088807584,0.105796188425079]","[-0.3,-0.27599999999999997,-0.25199999999999995,-0.22799999999999995,-0.20399999999999996,-0.17999999999999997,-0.15599999999999997,-0.13199999999999998,-0.10799999999999998,-0.08399999999999999,-0.05999999999999999,-0.03599999999999999,-0.01199999999999999,0.01200000000000001,0.03600000000000001,0.06000000000000001,0.08400000000000002,0.10800000000000001,0.132,0.156,0.18,0.204,0.22799999999999998,0.252,0.276,0.30000000000000004,0.276,0.252,0.228,0.20400000000000001,0.18000000000000002,0.15600000000000003,0.13200000000000003,0.10800000000000004,0.08400000000000005,0.060000000000000046,0.036000000000000046,0.012000000000000045,-0.011999999999999955,-0.035999999999999956,-0.059999999999999956,-0.08399999999999996,-0.10799999999999996,-0.13199999999999995,-0.15599999999999994,-0.17999999999999994,-0.20399999999999993,-0.22799999999999992,-0.25199999999999995,-0.27599999999999997,-0.3]","[-0.5,-0.5,-0.5,-0.5,-0.5,-0.5,-0.5,-0.5,-0.5,-0.5,-0.5,-0.5,-0.5,-0.5,-0.5,-0.5,-0.5,-0.5,-0.5,-0.5,-0.4979166666666667,-0.49322916666666666,-0.4765625,-0.44791666666666663,-0.41093749999999996,-0.36614583333333334,-0.31875,-0.2760416666666667,-0.23645833333333335,-0.19270833333333334,-0.15208333333333335,-0.11302083333333333,-0.07864583333333333,-0.05364583333333333,-0.034374999999999996,-0.0125,0.0109375,0.034374999999999996,0.05520833333333333,0.0703125,0.0796875,0.08854166666666667,0.09791666666666667,0.10833333333333334,0.11510416666666667,0.1171875,0.11927083333333333,0.12083333333333333,0.12239583333333333,0.12291666666666667,0.12447916666666667]","[-0.3,-0.3,-0.3,-0.3,-0.3,-0.3,-0.3,-0.3,-0.3,-0.3,-0.3,-0.3,-0.3,-0.3,-0.3,-0.3,-0.3,-0.3,-0.3,-0.3,-0.3,-0.3,-0.3,-0.3,-0.3,-0.3,-0.3,-0.3,-0.3,-0.3,-0.3,-0.3,-0.3,-0.3,-0.3,-0.3,-0.3,-0.3,-0.3,-0.3,-0.3,-0.3,-0.3,-0.3,-0.3,-0.3,-0.3,-0.3,-0.3,-0.3,-0.3]",80,0,2,hit,1,1,3,,0.04,0.105796188,0.122916667,-0.017120478,-1.21431E-17,0.3,hor,,,26.4108,[],[],[],[],[],[],0,0,0,0,1,0.4,,,,,
,1,2,1,2022-10-27_12h26.35.994,bounceV3,2022.2.4,Win32,60.10699044,,10,[],[],[],[],[],[],"[0,0,0,0,0,0,0,0,0,0,0,0,0,0,0,0,0,0,0,0,0,0,0,0,0,1,1,1,1,1,1,1,1,1,1,1,1,1,1,1,1,1,1,1,1,1,1,1,1,1,1,1,1,1,1,1,1,1,1,1,1,1,1,1,1,1,1,1,1,1,1,1,1,1,1,1,1,1,1,1,1]","[0.1607695154586736,0.15433873484032665,0.1479079542219797,0.14147717360363274,0.13504639298528578,0.12861561236693883,0.12218483174859189,0.11575405113024495,0.10932327051189801,0.10289248989355107,0.09646170927520413,0.09003092865685719,0.08360014803851025,0.07716936742016331,0.07073858680181637,0.06430780618346943,0.05787702556512248,0.051446244946775535,0.04501546432842859,0.03858468371008164,0.032153903091734694,0.02572312247338775,0.019292341855040807,0.012861561236693863,0.0064307806183469185,-2.6020852139652106e-17,-0.0064307806183469705,-0.012861561236693915,-0.01929234185504086,-0.025723122473387802,-0.03215390309173475,-0.038584683710081696,-0.045015464328428643,-0.05144624494677559,-0.05787702556512254,-0.06430780618346948,-0.07073858680181642,-0.07716936742016337,-0.0836001480385103,-0.09003092865685725,-0.09646170927520419,-0.10289248989355113,-0.10932327051189807,-0.115754051130245,-0.12218483174859195,-0.1286156123669389,-0.13504639298528584,-0.1414771736036328,-0.14790795422197975,-0.1543387348403267,-0.16076951545867366,-0.1672002960770206,-0.17363107669536756,-0.18006185731371452,-0.18649263793206147,-0.19292341855040843,-0.19935419916875538,-0.20578497978710233,-0.2122157604054493,-0.21864654102379624,-0.2250773216421432,-0.23150810226049015,-0.2379388828788371,-0.24436966349718406,-0.250800444115531,-0.25723122473387794,-0.2636620053522249,-0.27009278597057185,-0.2765235665889188,-0.28295434720726576,-0.2893851278256127,-0.29581590844395966,-0.3022466890623066,-0.30867746968065357,-0.3151082502990005,-0.3215390309173475,-0.32796981153569443,-0.3344005921540414,-0.34083137277238834,-0.3472621533907353,-0.35369293400908225]","[-0.3,-0.27599999999999997,-0.25199999999999995,-0.22799999999999995,-0.20399999999999996,-0.17999999999999997,-0.15599999999999997,-0.13199999999999998,-0.10799999999999998,-0.08399999999999999,-0.05999999999999999,-0.03599999999999999,-0.01199999999999999,0.01200000000000001,0.03600000000000001,0.06000000000000001,0.08400000000000002,0.10800000000000001,0.132,0.156,0.18,0.204,0.22799999999999998,0.252,0.276,0.30000000000000004,0.276,0.252,0.228,0.20400000000000001,0.18000000000000002,0.15600000000000003,0.13200000000000003,0.10800000000000004,0.08400000000000005,0.060000000000000046,0.036000000000000046,0.012000000000000045,-0.011999999999999955,-0.035999999999999956,-0.059999999999999956,-0.08399999999999996,-0.10799999999999996,-0.13199999999999995,-0.15599999999999994,-0.17999999999999994,-0.20399999999999993,-0.22799999999999992,-0.25199999999999995,-0.27599999999999997,-0.3,-0.324,-0.34800000000000003,-0.37200000000000005,-0.3960000000000001,-0.4200000000000001,-0.4440000000000001,-0.46800000000000014,-0.49200000000000016,-0.5160000000000001,-0.5400000000000001,-0.5640000000000002,-0.5880000000000002,-0.6120000000000002,-0.6360000000000002,-0.6600000000000003,-0.6840000000000003,-0.7080000000000003,-0.7320000000000003,-0.7560000000000003,-0.7800000000000004,-0.8040000000000004,-0.8280000000000004,-0.8520000000000004,-0.8760000000000004,-0.9000000000000005,-0.9240000000000005,-0.9480000000000005,-0.9720000000000005,-0.9960000000000006,-1.0200000000000005]","[0.49947916666666664,0.49947916666666664,0.49947916666666664,0.49947916666666664,0.49947916666666664,0.49947916666666664,0.49947916666666664,0.49947916666666664,0.49947916666666664,0.49947916666666664,0.49947916666666664,0.49947916666666664,0.49947916666666664,0.49947916666666664,0.49947916666666664,0.49947916666666664,0.49947916666666664,0.49947916666666664,0.49895833333333334,0.490625,0.4708333333333333,0.440625,0.40208333333333335,0.3536458333333333,0.3015625,0.24895833333333334,0.20208333333333334,0.15520833333333334,0.11875,0.08385416666666667,0.05520833333333333,0.027083333333333334,-0.0015625,-0.0265625,-0.0484375,-0.07395833333333333,-0.10104166666666667,-0.11822916666666668,-0.1265625,-0.134375,-0.14895833333333336,-0.16822916666666665,-0.1875,-0.203125,-0.21666666666666667,-0.22083333333333333,-0.22083333333333333,-0.22083333333333333,-0.22135416666666669,-0.22291666666666668,-0.22343749999999998,-0.22343749999999998,-0.22343749999999998,-0.2203125,-0.2171875,-0.21354166666666669,-0.20833333333333331,-0.2015625,-0.1921875,-0.1859375,-0.18333333333333335,-0.18281250000000002,-0.18072916666666666,-0.17812499999999998,-0.17447916666666666,-0.17083333333333334,-0.165625,-0.16510416666666666,-0.16510416666666666,-0.16510416666666666,-0.16510416666666666,-0.16302083333333334,-0.15989583333333335,-0.15572916666666667,-0.15416666666666667,-0.15416666666666667,-0.15364583333333331,-0.15260416666666668,-0.1473958333333333,-0.14166666666666666,-0.140625]","[-0.3,-0.3,-0.3,-0.3,-0.3,-0.3,-0.3,-0.3,-0.3,-0.3,-0.3,-0.3,-0.3,-0.3,-0.3,-0.3,-0.3,-0.3,-0.3,-0.3,-0.3,-0.3,-0.3,-0.3,-0.3,-0.3,-0.3,-0.3,-0.3,-0.3,-0.3,-0.3,-0.3,-0.3,-0.3,-0.3,-0.3,-0.3,-0.3,-0.3,-0.3,-0.3,-0.3,-0.3,-0.3,-0.3,-0.3,-0.3,-0.3,-0.3,-0.3,-0.3,-0.3,-0.3,-0.3,-0.3,-0.3,-0.3,-0.3,-0.3,-0.3,-0.3,-0.3,-0.3,-0.3,-0.3,-0.3,-0.3,-0.3,-0.3,-0.3,-0.3,-0.3,-0.3,-0.3,-0.3,-0.3,-0.3,-0.3,-0.3,-0.3]",-75,0,2,miss,1,2,3,,0.04,-0.160769515,-0.222916667,0.062147151,-2.60209E-17,0.3,hor,,,31.7963,[],[],[],[],[],[],0,1,1,1,1,5,,,,,
,1,2,1,2022-10-27_12h26.35.994,bounceV3,2022.2.4,Win32,60.10699044,,,,,,,,,,,,,,,,,,,,,,,,,,,,,,,,,,,,,,,,,,,,2,0,2,0,1
,1,2,1,2022-10-27_12h26.35.994,bounceV3,2022.2.4,Win32,60.10699044,0.02,0,[],[],[],[],[],[],"[0,0,0,0,0,0,0,0,0,0,0,0,0,0,0,0,0,0,0,0,0,0,0,0,0,1,1,1,1,1,1,1,1,1,1,1,1,1,1,1,1,1,1,1,1,1,1,1,1,1,1,1,1,1,1,1,1,1,1,1,1,1,1,1,1,1,1,1,1,1,1,1,1,1,1,1,1,1,1,1,1]","[-0.05249319811555451,-0.05039347019093233,-0.04829374226631015,-0.04619401434168797,-0.04409428641706579,-0.04199455849244361,-0.03989483056782143,-0.03779510264319925,-0.03569537471857707,-0.03359564679395489,-0.03149591886933271,-0.029396190944710528,-0.027296463020088348,-0.025196735095466168,-0.023097007170843988,-0.020997279246221807,-0.018897551321599627,-0.016797823396977447,-0.014698095472355267,-0.012598367547733087,-0.010498639623110907,-0.008398911698488727,-0.006299183773866547,-0.004199455849244367,-0.0020997279246221866,-6.071532165918825e-18,0.00209972792462217,0.004199455849244346,0.006299183773866523,0.0083989116984887,0.010498639623110876,0.012598367547733053,0.01469809547235523,0.016797823396977406,0.018897551321599582,0.02099727924622176,0.023097007170843935,0.025196735095466112,0.02729646302008829,0.029396190944710465,0.03149591886933264,0.03359564679395481,0.035695374718576985,0.03779510264319916,0.03989483056782133,0.041994558492443504,0.04409428641706568,0.04619401434168785,0.04829374226631002,0.050393470190932196,0.05249319811555437,0.05459292604017654,0.056692653964798716,0.05879238188942089,0.06089210981404306,0.06299183773866524,0.06509156566328742,0.0671912935879096,0.06929102151253178,0.07139074943715396,0.07349047736177614,0.07559020528639832,0.0776899332110205,0.07978966113564268,0.08188938906026486,0.08398911698488704,0.08608884490950922,0.0881885728341314,0.09028830075875358,0.09238802868337576,0.09448775660799794,0.09658748453262012,0.0986872124572423,0.10078694038186448,0.10288666830648666,0.10498639623110884,0.10708612415573102,0.1091858520803532,0.11128558000497538,0.11338530792959756,0.11548503585421974]","[-0.3,-0.27599999999999997,-0.25199999999999995,-0.22799999999999995,-0.20399999999999996,-0.17999999999999997,-0.15599999999999997,-0.13199999999999998,-0.10799999999999998,-0.08399999999999999,-0.05999999999999999,-0.03599999999999999,-0.01199999999999999,0.01200000000000001,0.03600000000000001,0.06000000000000001,0.08400000000000002,0.10800000000000001,0.132,0.156,0.18,0.204,0.22799999999999998,0.252,0.276,0.30000000000000004,0.276,0.252,0.228,0.20400000000000001,0.18000000000000002,0.15600000000000003,0.13200000000000003,0.10800000000000004,0.08400000000000005,0.060000000000000046,0.036000000000000046,0.012000000000000045,-0.011999999999999955,-0.035999999999999956,-0.059999999999999956,-0.08399999999999996,-0.10799999999999996,-0.13199999999999995,-0.15599999999999994,-0.17999999999999994,-0.20399999999999993,-0.22799999999999992,-0.25199999999999995,-0.27599999999999997,-0.3,-0.324,-0.34800000000000003,-0.37200000000000005,-0.3960000000000001,-0.4200000000000001,-0.4440000000000001,-0.46800000000000014,-0.49200000000000016,-0.5160000000000001,-0.5400000000000001,-0.5640000000000002,-0.5880000000000002,-0.6120000000000002,-0.6360000000000002,-0.6600000000000003,-0.6840000000000003,-0.7080000000000003,-0.7320000000000003,-0.7560000000000003,-0.7800000000000004,-0.8040000000000004,-0.8280000000000004,-0.8520000000000004,-0.8760000000000004,-0.9000000000000005,-0.9240000000000005,-0.9480000000000005,-0.9720000000000005,-0.9960000000000006,-1.0200000000000005]","[-0.5,-0.5,-0.5,-0.5,-0.5,-0.5,-0.5,-0.5,-0.5,-0.5,-0.5,-0.5,-0.5,-0.5,-0.5,-0.49895833333333334,-0.49375,-0.48177083333333337,-0.46822916666666664,-0.44843750000000004,-0.42291666666666666,-0.3869791666666667,-0.34062499999999996,-0.284375,-0.22552083333333334,-0.16145833333333334,-0.1015625,-0.05625,-0.019270833333333334,0.0067708333333333336,0.0265625,0.044270833333333336,0.058333333333333334,0.06770833333333333,0.07395833333333333,0.08072916666666667,0.08802083333333333,0.09479166666666666,0.09947916666666666,0.10416666666666666,0.11145833333333334,0.11822916666666668,0.1234375,0.12395833333333334,0.12395833333333334,0.12291666666666667,0.12135416666666667,0.12083333333333333,0.12031249999999999,0.11875,0.11354166666666668,0.1046875,0.09739583333333332,0.09427083333333333,0.09427083333333333,0.09427083333333333,0.09427083333333333,0.09375,0.09322916666666667,0.0921875,0.09166666666666667,0.09114583333333333,0.09062500000000001,0.0875,0.08072916666666667,0.07760416666666667,0.07604166666666667,0.07552083333333334,0.07552083333333334,0.075,0.075,0.07447916666666668,0.07395833333333333,0.071875,0.0703125,0.06874999999999999,0.06822916666666666,0.06822916666666666,0.06822916666666666,0.06822916666666666,0.06822916666666666]","[-0.3,-0.3,-0.3,-0.3,-0.3,-0.3,-0.3,-0.3,-0.3,-0.3,-0.3,-0.3,-0.3,-0.3,-0.3,-0.3,-0.3,-0.3,-0.3,-0.3,-0.3,-0.3,-0.3,-0.3,-0.3,-0.3,-0.3,-0.3,-0.3,-0.3,-0.3,-0.3,-0.3,-0.3,-0.3,-0.3,-0.3,-0.3,-0.3,-0.3,-0.3,-0.3,-0.3,-0.3,-0.3,-0.3,-0.3,-0.3,-0.3,-0.3,-0.3,-0.3,-0.3,-0.3,-0.3,-0.3,-0.3,-0.3,-0.3,-0.3,-0.3,-0.3,-0.3,-0.3,-0.3,-0.3,-0.3,-0.3,-0.3,-0.3,-0.3,-0.3,-0.3,-0.3,-0.3,-0.3,-0.3,-0.3,-0.3,-0.3,-0.3]",85,0,2,miss,1,1,4,,0.04,0.052493198,0.11875,-0.066256802,-6.07153E-18,0.3,hor,,,38.2289,[],[],[],[],[],[],0,0,0,1,1,5,,,,,
,1,2,1,2022-10-27_12h26.35.994,bounceV3,2022.2.4,Win32,60.10699044,,0,[],[],[],[],[],[],"[0,0,0,0,0,0,0,0,0,0,0,0,0,0,0,0,0,0,0,0,0,0,0,0,0,1,1,1,1,1,1,1,1,1,1,1,1,1,1,1,1,1,1,1,1,1,1,1,1,1,1]","[-0.1607695154586736,-0.15433873484032665,-0.1479079542219797,-0.14147717360363274,-0.13504639298528578,-0.12861561236693883,-0.12218483174859189,-0.11575405113024495,-0.10932327051189801,-0.10289248989355107,-0.09646170927520413,-0.09003092865685719,-0.08360014803851025,-0.07716936742016331,-0.07073858680181637,-0.06430780618346943,-0.05787702556512248,-0.051446244946775535,-0.04501546432842859,-0.03858468371008164,-0.032153903091734694,-0.02572312247338775,-0.019292341855040807,-0.012861561236693863,-0.0064307806183469185,2.6020852139652106e-17,0.0064307806183469705,0.012861561236693915,0.01929234185504086,0.025723122473387802,0.03215390309173475,0.038584683710081696,0.045015464328428643,0.05144624494677559,0.05787702556512254,0.06430780618346948,0.07073858680181642,0.07716936742016337,0.0836001480385103,0.09003092865685725,0.09646170927520419,0.10289248989355113,0.10932327051189807,0.115754051130245,0.12218483174859195,0.1286156123669389,0.13504639298528584,0.1414771736036328,0.14790795422197975,0.1543387348403267,0.16076951545867366]","[-0.3,-0.27599999999999997,-0.25199999999999995,-0.22799999999999995,-0.20399999999999996,-0.17999999999999997,-0.15599999999999997,-0.13199999999999998,-0.10799999999999998,-0.08399999999999999,-0.05999999999999999,-0.03599999999999999,-0.01199999999999999,0.01200000000000001,0.03600000000000001,0.06000000000000001,0.08400000000000002,0.10800000000000001,0.132,0.156,0.18,0.204,0.22799999999999998,0.252,0.276,0.30000000000000004,0.276,0.252,0.228,0.20400000000000001,0.18000000000000002,0.15600000000000003,0.13200000000000003,0.10800000000000004,0.08400000000000005,0.060000000000000046,0.036000000000000046,0.012000000000000045,-0.011999999999999955,-0.035999999999999956,-0.059999999999999956,-0.08399999999999996,-0.10799999999999996,-0.13199999999999995,-0.15599999999999994,-0.17999999999999994,-0.20399999999999993,-0.22799999999999992,-0.25199999999999995,-0.27599999999999997,-0.3]","[-0.5,-0.5,-0.5,-0.5,-0.5,-0.5,-0.5,-0.5,-0.5,-0.5,-0.4984375,-0.4921875,-0.48124999999999996,-0.4640625,-0.44427083333333334,-0.415625,-0.3869791666666667,-0.35989583333333336,-0.3328125,-0.309375,-0.28958333333333336,-0.271875,-0.2557291666666667,-0.23385416666666667,-0.20364583333333333,-0.16510416666666666,-0.11562499999999999,-0.06979166666666667,-0.027083333333333334,0.009375,0.0375,0.06041666666666667,0.07447916666666668,0.08489583333333334,0.09322916666666667,0.10052083333333334,0.1046875,0.10572916666666667,0.10989583333333333,0.11822916666666668,0.1296875,0.13854166666666667,0.14322916666666669,0.14427083333333332,0.14583333333333331,0.15052083333333333,0.1546875,0.15625,0.15677083333333336,0.15677083333333336,0.15677083333333336]","[-0.3,-0.3,-0.3,-0.3,-0.3,-0.3,-0.3,-0.3,-0.3,-0.3,-0.3,-0.3,-0.3,-0.3,-0.3,-0.3,-0.3,-0.3,-0.3,-0.3,-0.3,-0.3,-0.3,-0.3,-0.3,-0.3,-0.3,-0.3,-0.3,-0.3,-0.3,-0.3,-0.3,-0.3,-0.3,-0.3,-0.3,-0.3,-0.3,-0.3,-0.3,-0.3,-0.3,-0.3,-0.3,-0.3,-0.3,-0.3,-0.3,-0.3,-0.3]",75,0,2,hit,1,2,4,,0.04,0.160769515,0.156770833,0.003998682,2.60209E-17,0.3,hor,,,41.8247,[],[],[],[],[],[],0,1,1,0,1,0.4,,,,,
,1,2,1,2022-10-27_12h26.35.994,bounceV3,2022.2.4,Win32,60.10699044,,,,,,,,,,,,,,,,,,,,,,,,,,,,,,,,,,,,,,,,,,,,3,0,3,0,1
,1,2,1,2022-10-27_12h26.35.994,bounceV3,2022.2.4,Win32,60.10699044,0.02,0,[],[],[],[],[],[],"[0,0,0,0,0,0,0,0,0,0,0,0,0,0,0,0,0,0,0,0,0,0,0,0,0,1,1,1,1,1,1,1,1,1,1,1,1,1,1,1,1,1,1,1,1,1,1,1,1,1,1,1,1,1,1,1,1,1,1,1,1,1,1,1,1,1,1,1,1,1,1,1,1,1,1,1,1,1,1,1,1]","[0.1607695154586736,0.15433873484032665,0.1479079542219797,0.14147717360363274,0.13504639298528578,0.12861561236693883,0.12218483174859189,0.11575405113024495,0.10932327051189801,0.10289248989355107,0.09646170927520413,0.09003092865685719,0.08360014803851025,0.07716936742016331,0.07073858680181637,0.06430780618346943,0.05787702556512248,0.051446244946775535,0.04501546432842859,0.03858468371008164,0.032153903091734694,0.02572312247338775,0.019292341855040807,0.012861561236693863,0.0064307806183469185,-2.6020852139652106e-17,-0.015585782236740274,-0.031171564473480524,-0.046757346710220776,-0.06234312894696102,-0.07792891118370127,-0.09351469342044151,-0.10910047565718176,-0.124686257893922,-0.14027204013066225,-0.1558578223674025,-0.17144360460414276,-0.18702938684088302,-0.20261516907762328,-0.21820095131436354,-0.2337867335511038,-0.24937251578784406,-0.2649582980245843,-0.28054408026132455,-0.2961298624980648,-0.311715644734805,-0.32730142697154524,-0.34288720920828547,-0.3584729914450257,-0.37405877368176593,-0.38964455591850616,-0.4052303381552464,-0.4208161203919866,-0.43640190262872686,-0.4519876848654671,-0.4675734671022073,-0.48315924933894755,-0.4987450315756878,-0.5143308138124281,-0.5299165960491683,-0.5455023782859085,-0.5610881605226488,-0.576673942759389,-0.5922597249961292,-0.6078455072328695,-0.6234312894696097,-0.6390170717063499,-0.6546028539430901,-0.6701886361798304,-0.6857744184165706,-0.7013602006533108,-0.7169459828900511,-0.7325317651267913,-0.7481175473635315,-0.7637033296002718,-0.779289111837012,-0.7948748940737522,-0.8104606763104925,-0.8260464585472327,-0.8416322407839729,-0.8572180230207131]","[-0.3,-0.27599999999999997,-0.25199999999999995,-0.22799999999999995,-0.20399999999999996,-0.17999999999999997,-0.15599999999999997,-0.13199999999999998,-0.10799999999999998,-0.08399999999999999,-0.05999999999999999,-0.03599999999999999,-0.01199999999999999,0.01200000000000001,0.03600000000000001,0.06000000000000001,0.08400000000000002,0.10800000000000001,0.132,0.156,0.18,0.204,0.22799999999999998,0.252,0.276,0.30000000000000004,0.276,0.252,0.228,0.20400000000000001,0.18000000000000002,0.15600000000000003,0.13200000000000003,0.10800000000000004,0.08400000000000005,0.060000000000000046,0.036000000000000046,0.012000000000000045,-0.011999999999999955,-0.035999999999999956,-0.059999999999999956,-0.08399999999999996,-0.10799999999999996,-0.13199999999999995,-0.15599999999999994,-0.17999999999999994,-0.20399999999999993,-0.22799999999999992,-0.25199999999999995,-0.27599999999999997,-0.3,-0.324,-0.34800000000000003,-0.37200000000000005,-0.3960000000000001,-0.4200000000000001,-0.4440000000000001,-0.46800000000000014,-0.49200000000000016,-0.5160000000000001,-0.5400000000000001,-0.5640000000000002,-0.5880000000000002,-0.6120000000000002,-0.6360000000000002,-0.6600000000000003,-0.6840000000000003,-0.7080000000000003,-0.7320000000000003,-0.7560000000000003,-0.7800000000000004,-0.8040000000000004,-0.8280000000000004,-0.8520000000000004,-0.8760000000000004,-0.9000000000000005,-0.9240000000000005,-0.9480000000000005,-0.9720000000000005,-0.9960000000000006,-1.0200000000000005]","[0.46249999999999997,0.4640625,0.46510416666666665,0.46562499999999996,0.46718750000000003,0.46875,0.46979166666666666,0.4703125,0.4703125,0.47135416666666663,0.4729166666666667,0.4739583333333333,0.4739583333333333,0.4739583333333333,0.4739583333333333,0.4739583333333333,0.4739583333333333,0.4739583333333333,0.4739583333333333,0.47135416666666663,0.4604166666666667,0.440625,0.41302083333333334,0.37552083333333336,0.334375,0.28489583333333335,0.23281249999999998,0.19114583333333332,0.15729166666666666,0.12604166666666666,0.09635416666666667,0.06145833333333334,0.03697916666666667,0.01979166666666667,0.00625,-0.0067708333333333336,-0.02291666666666667,-0.0375,-0.04947916666666667,-0.058854166666666666,-0.07291666666666666,-0.09322916666666667,-0.11979166666666667,-0.14583333333333331,-0.17239583333333333,-0.2015625,-0.2265625,-0.24479166666666666,-0.2625,-0.28645833333333337,-0.3098958333333333,-0.3260416666666667,-0.3328125,-0.3348958333333333,-0.34322916666666664,-0.3651041666666666,-0.3901041666666667,-0.41302083333333334,-0.4223958333333333,-0.4234375,-0.4234375,-0.4234375,-0.4239583333333333,-0.4239583333333333,-0.4239583333333333,-0.41875,-0.4052083333333333,-0.3796875,-0.3416666666666667,-0.2994791666666667,-0.2520833333333333,-0.20572916666666669,-0.15520833333333334,-0.10520833333333333,-0.06354166666666666,-0.0359375,-0.02291666666666667,-0.020833333333333332,-0.01979166666666667,-0.017708333333333333,-0.0109375]","[-0.3,-0.3,-0.3,-0.3,-0.3,-0.3,-0.3,-0.3,-0.3,-0.3,-0.3,-0.3,-0.3,-0.3,-0.3,-0.3,-0.3,-0.3,-0.3,-0.3,-0.3,-0.3,-0.3,-0.3,-0.3,-0.3,-0.3,-0.3,-0.3,-0.3,-0.3,-0.3,-0.3,-0.3,-0.3,-0.3,-0.3,-0.3,-0.3,-0.3,-0.3,-0.3,-0.3,-0.3,-0.3,-0.3,-0.3,-0.3,-0.3,-0.3,-0.3,-0.3,-0.3,-0.3,-0.3,-0.3,-0.3,-0.3,-0.3,-0.3,-0.3,-0.3,-0.3,-0.3,-0.3,-0.3,-0.3,-0.3,-0.3,-0.3,-0.3,-0.3,-0.3,-0.3,-0.3,-0.3,-0.3,-0.3,-0.3,-0.3,-0.3]",-75,-9,2,miss,1,1,5,,0.04,-0.389644556,-0.286458333,-0.103186223,-2.60209E-17,0.3,tilt,,,48.3601,[],[],[],[],[],[],0,0,0,1,1,5,,,,,
,1,2,1,2022-10-27_12h26.35.994,bounceV3,2022.2.4,Win32,60.10699044,,0,[],[],[],[],[],[],"[0,0,0,0,0,0,0,0,0,0,0,0,0,0,0,0,0,0,0,0,0,0,0,0,0,1,1,1,1,1,1,1,1,1,1,1,1,1,1,1,1,1,1,1,1,1,1,1,1,1,1]","[0.1607695154586736,0.15433873484032665,0.1479079542219797,0.14147717360363274,0.13504639298528578,0.12861561236693883,0.12218483174859189,0.11575405113024495,0.10932327051189801,0.10289248989355107,0.09646170927520413,0.09003092865685719,0.08360014803851025,0.07716936742016331,0.07073858680181637,0.06430780618346943,0.05787702556512248,0.051446244946775535,0.04501546432842859,0.03858468371008164,0.032153903091734694,0.02572312247338775,0.019292341855040807,0.012861561236693863,0.0064307806183469185,-2.6020852139652106e-17,-0.015585782236740274,-0.031171564473480524,-0.046757346710220776,-0.06234312894696102,-0.07792891118370127,-0.09351469342044151,-0.10910047565718176,-0.124686257893922,-0.14027204013066225,-0.1558578223674025,-0.17144360460414276,-0.18702938684088302,-0.20261516907762328,-0.21820095131436354,-0.2337867335511038,-0.24937251578784406,-0.2649582980245843,-0.28054408026132455,-0.2961298624980648,-0.311715644734805,-0.32730142697154524,-0.34288720920828547,-0.3584729914450257,-0.37405877368176593,-0.38964455591850616]","[-0.3,-0.27599999999999997,-0.25199999999999995,-0.22799999999999995,-0.20399999999999996,-0.17999999999999997,-0.15599999999999997,-0.13199999999999998,-0.10799999999999998,-0.08399999999999999,-0.05999999999999999,-0.03599999999999999,-0.01199999999999999,0.01200000000000001,0.03600000000000001,0.06000000000000001,0.08400000000000002,0.10800000000000001,0.132,0.156,0.18,0.204,0.22799999999999998,0.252,0.276,0.30000000000000004,0.276,0.252,0.228,0.20400000000000001,0.18000000000000002,0.15600000000000003,0.13200000000000003,0.10800000000000004,0.08400000000000005,0.060000000000000046,0.036000000000000046,0.012000000000000045,-0.011999999999999955,-0.035999999999999956,-0.059999999999999956,-0.08399999999999996,-0.10799999999999996,-0.13199999999999995,-0.15599999999999994,-0.17999999999999994,-0.20399999999999993,-0.22799999999999992,-0.25199999999999995,-0.27599999999999997,-0.3]","[0.49947916666666664,0.49947916666666664,0.49947916666666664,0.49947916666666664,0.49947916666666664,0.49947916666666664,0.49947916666666664,0.49947916666666664,0.49947916666666664,0.49947916666666664,0.49947916666666664,0.49947916666666664,0.49947916666666664,0.49947916666666664,0.4984375,0.48750000000000004,0.46822916666666664,0.44166666666666665,0.4140625,0.3796875,0.34375,0.30833333333333335,0.26979166666666665,0.23020833333333335,0.18489583333333334,0.14114583333333333,0.096875,0.058854166666666666,0.027604166666666666,-0.009375,-0.04791666666666666,-0.0828125,-0.11666666666666667,-0.1421875,-0.16145833333333334,-0.17812499999999998,-0.19114583333333332,-0.20052083333333331,-0.21041666666666667,-0.22291666666666668,-0.23541666666666666,-0.24375000000000002,-0.25104166666666666,-0.2677083333333333,-0.2911458333333333,-0.3140625,-0.3338541666666667,-0.3510416666666667,-0.3609375,-0.36250000000000004,-0.36250000000000004]","[-0.3,-0.3,-0.3,-0.3,-0.3,-0.3,-0.3,-0.3,-0.3,-0.3,-0.3,-0.3,-0.3,-0.3,-0.3,-0.3,-0.3,-0.3,-0.3,-0.3,-0.3,-0.3,-0.3,-0.3,-0.3,-0.3,-0.3,-0.3,-0.3,-0.3,-0.3,-0.3,-0.3,-0.3,-0.3,-0.3,-0.3,-0.3,-0.3,-0.3,-0.3,-0.3,-0.3,-0.3,-0.3,-0.3,-0.3,-0.3,-0.3,-0.3,-0.3]",-75,-9,2,hit,1,2,5,,0.04,-0.389644556,-0.3625,-0.027144556,-2.60209E-17,0.3,tilt,,,53.3729,[],[],[],[],[],[],0,1,1,0,1,0.4,,,,,
,1,2,1,2022-10-27_12h26.35.994,bounceV3,2022.2.4,Win32,60.10699044,,,,,,,,,,,,,,,,,,,,,,,,,,,,,,,,,,,,,,,,,,,,4,0,4,0,1
,1,2,1,2022-10-27_12h26.35.994,bounceV3,2022.2.4,Win32,60.10699044,0.02,0,[],[],[],[],[],[],"[0,0,0,0,0,0,0,0,0,0,0,0,0,0,0,0,0,0,0,0,0,0,0,0,0,1,1,1,1,1,1,1,1,1,1,1,1,1,1,1,1,1,1,1,1,1,1,1,1,1,1]","[0.10579618842507904,0.10156434088807588,0.09733249335107272,0.09310064581406956,0.0888687982770664,0.08463695074006324,0.08040510320306007,0.07617325566605691,0.07194140812905375,0.06770956059205059,0.06347771305504743,0.05924586551804427,0.05501401798104111,0.05078217044403795,0.046550322907034786,0.042318475370031625,0.038086627833028464,0.0338547802960253,0.02962293275902214,0.02539108522201898,0.02115923768501582,0.016927390148012658,0.012695542611009497,0.008463695074006336,0.004231847537003174,1.214306433183765e-17,-0.012761026359875477,-0.025522052719750964,-0.038283079079626456,-0.05104410543950194,-0.06380513179937743,-0.07656615815925291,-0.0893271845191284,-0.10208821087900388,-0.11484923723887937,-0.12761026359875485,-0.14037128995863035,-0.15313231631850585,-0.16589334267838135,-0.17865436903825685,-0.19141539539813235,-0.20417642175800785,-0.21693744811788335,-0.22969847447775885,-0.24245950083763435,-0.2552205271975098,-0.2679815535573853,-0.28074257991726076,-0.29350360627713623,-0.3062646326370117,-0.3190256589968872]","[-0.3,-0.27599999999999997,-0.25199999999999995,-0.22799999999999995,-0.20399999999999996,-0.17999999999999997,-0.15599999999999997,-0.13199999999999998,-0.10799999999999998,-0.08399999999999999,-0.05999999999999999,-0.03599999999999999,-0.01199999999999999,0.01200000000000001,0.03600000000000001,0.06000000000000001,0.08400000000000002,0.10800000000000001,0.132,0.156,0.18,0.204,0.22799999999999998,0.252,0.276,0.30000000000000004,0.276,0.252,0.228,0.20400000000000001,0.18000000000000002,0.15600000000000003,0.13200000000000003,0.10800000000000004,0.08400000000000005,0.060000000000000046,0.036000000000000046,0.012000000000000045,-0.011999999999999955,-0.035999999999999956,-0.059999999999999956,-0.08399999999999996,-0.10799999999999996,-0.13199999999999995,-0.15599999999999994,-0.17999999999999994,-0.20399999999999993,-0.22799999999999992,-0.25199999999999995,-0.27599999999999997,-0.3]","[0.49947916666666664,0.49947916666666664,0.49947916666666664,0.49947916666666664,0.49947916666666664,0.49947916666666664,0.49947916666666664,0.49947916666666664,0.49947916666666664,0.49947916666666664,0.49947916666666664,0.49947916666666664,0.49947916666666664,0.49947916666666664,0.49947916666666664,0.49687499999999996,0.47760416666666666,0.44843750000000004,0.41510416666666666,0.37135416666666665,0.34375,0.31093750000000003,0.28229166666666666,0.2578125,0.2296875,0.1953125,0.14895833333333336,0.1046875,0.058333333333333334,0.011458333333333334,-0.0328125,-0.07239583333333334,-0.10572916666666667,-0.13802083333333334,-0.16510416666666666,-0.18802083333333333,-0.20885416666666667,-0.2265625,-0.24270833333333333,-0.25364583333333335,-0.2578125,-0.259375,-0.2598958333333333,-0.2598958333333333,-0.26145833333333335,-0.26666666666666666,-0.27447916666666666,-0.2833333333333333,-0.2911458333333333,-0.29375,-0.29375]","[-0.3,-0.3,-0.3,-0.3,-0.3,-0.3,-0.3,-0.3,-0.3,-0.3,-0.3,-0.3,-0.3,-0.3,-0.3,-0.3,-0.3,-0.3,-0.3,-0.3,-0.3,-0.3,-0.3,-0.3,-0.3,-0.3,-0.3,-0.3,-0.3,-0.3,-0.3,-0.3,-0.3,-0.3,-0.3,-0.3,-0.3,-0.3,-0.3,-0.3,-0.3,-0.3,-0.3,-0.3,-0.3,-0.3,-0.3,-0.3,-0.3,-0.3,-0.3]",-80,-9,2,hit,1,1,6,,0.04,-0.319025659,-0.29375,-0.025275659,1.21431E-17,0.3,tilt,,,60.027,[],[],[],[],[],[],0,0,0,1,1,5,,,,,
,1,2,1,2022-10-27_12h26.35.994,bounceV3,2022.2.4,Win32,60.10699044,,5,[],[],[],[],[],[],"[0,0,0,0,0,0,0,0,0,0,0,0,0,0,0,0,0,0,0,0,0,0,0,0,0,1,1,1,1,1,1,1,1,1,1,1,1,1,1,1,1,1,1,1,1,1,1,1,1,1,1]","[-0.1607695154586736,-0.15433873484032665,-0.1479079542219797,-0.14147717360363274,-0.13504639298528578,-0.12861561236693883,-0.12218483174859189,-0.11575405113024495,-0.10932327051189801,-0.10289248989355107,-0.09646170927520413,-0.09003092865685719,-0.08360014803851025,-0.07716936742016331,-0.07073858680181637,-0.06430780618346943,-0.05787702556512248,-0.051446244946775535,-0.04501546432842859,-0.03858468371008164,-0.032153903091734694,-0.02572312247338775,-0.019292341855040807,-0.012861561236693863,-0.0064307806183469185,2.6020852139652106e-17,0.015585782236740274,0.031171564473480524,0.046757346710220776,0.06234312894696102,0.07792891118370127,0.09351469342044151,0.10910047565718176,0.124686257893922,0.14027204013066225,0.1558578223674025,0.17144360460414276,0.18702938684088302,0.20261516907762328,0.21820095131436354,0.2337867335511038,0.24937251578784406,0.2649582980245843,0.28054408026132455,0.2961298624980648,0.311715644734805,0.32730142697154524,0.34288720920828547,0.3584729914450257,0.37405877368176593,0.38964455591850616]","[-0.3,-0.27599999999999997,-0.25199999999999995,-0.22799999999999995,-0.20399999999999996,-0.17999999999999997,-0.15599999999999997,-0.13199999999999998,-0.10799999999999998,-0.08399999999999999,-0.05999999999999999,-0.03599999999999999,-0.01199999999999999,0.01200000000000001,0.03600000000000001,0.06000000000000001,0.08400000000000002,0.10800000000000001,0.132,0.156,0.18,0.204,0.22799999999999998,0.252,0.276,0.30000000000000004,0.276,0.252,0.228,0.20400000000000001,0.18000000000000002,0.15600000000000003,0.13200000000000003,0.10800000000000004,0.08400000000000005,0.060000000000000046,0.036000000000000046,0.012000000000000045,-0.011999999999999955,-0.035999999999999956,-0.059999999999999956,-0.08399999999999996,-0.10799999999999996,-0.13199999999999995,-0.15599999999999994,-0.17999999999999994,-0.20399999999999993,-0.22799999999999992,-0.25199999999999995,-0.27599999999999997,-0.3]","[-0.5,-0.5,-0.5,-0.5,-0.5,-0.5,-0.5,-0.49895833333333334,-0.4890625,-0.471875,-0.44843750000000004,-0.4192708333333333,-0.3854166666666667,-0.3536458333333333,-0.32083333333333336,-0.2875,-0.25416666666666665,-0.22135416666666669,-0.18541666666666665,-0.14947916666666666,-0.10989583333333333,-0.07291666666666666,-0.044270833333333336,-0.01875,0.005208333333333333,0.029166666666666667,0.0515625,0.07083333333333333,0.08802083333333333,0.11041666666666666,0.12760416666666669,0.14166666666666666,0.15520833333333334,0.16510416666666666,0.171875,0.18020833333333333,0.18854166666666666,0.19427083333333334,0.19791666666666669,0.19947916666666665,0.20260416666666664,0.2109375,0.22239583333333335,0.23697916666666666,0.25,0.2604166666666667,0.2677083333333333,0.28125,0.30729166666666663,0.3354166666666667,0.3614583333333333]","[-0.3,-0.3,-0.3,-0.3,-0.3,-0.3,-0.3,-0.3,-0.3,-0.3,-0.3,-0.3,-0.3,-0.3,-0.3,-0.3,-0.3,-0.3,-0.3,-0.3,-0.3,-0.3,-0.3,-0.3,-0.3,-0.3,-0.3,-0.3,-0.3,-0.3,-0.3,-0.3,-0.3,-0.3,-0.3,-0.3,-0.3,-0.3,-0.3,-0.3,-0.3,-0.3,-0.3,-0.3,-0.3,-0.3,-0.3,-0.3,-0.3,-0.3,-0.3]",75,9,2,hit,1,2,6,,0.04,0.389644556,0.335416667,0.054227889,2.60209E-17,0.3,tilt,,,65.7746,[],[],[],[],[],[],0,1,1,0,1,0.4,,,,,
,1,2,1,2022-10-27_12h26.35.994,bounceV3,2022.2.4,Win32,60.10699044,,,,,,,,,,,,,,,,,,,,,,,,,,,,,,,,,,,,,,,,,,,,5,0,5,0,1
,1,2,1,2022-10-27_12h26.35.994,bounceV3,2022.2.4,Win32,60.10699044,0.04,0,[],[],[],[],[],[],"[0,0,0,0,0,0,0,0,0,0,0,0,0,0,0,0,0,0,0,0,0,0,0,0,0,1,1,1,1,1,1,1,1,1,1,1,1,1,1,1,1,1,1,1,1,1,1,1,1,1,1]","[-0.10579618842507904,-0.10156434088807588,-0.09733249335107272,-0.09310064581406956,-0.0888687982770664,-0.08463695074006324,-0.08040510320306007,-0.07617325566605691,-0.07194140812905375,-0.06770956059205059,-0.06347771305504743,-0.05924586551804427,-0.05501401798104111,-0.05078217044403795,-0.046550322907034786,-0.042318475370031625,-0.038086627833028464,-0.0338547802960253,-0.02962293275902214,-0.02539108522201898,-0.02115923768501582,-0.016927390148012658,-0.012695542611009497,-0.008463695074006336,-0.004231847537003174,-1.214306433183765e-17,0.012761026359875477,0.025522052719750964,0.038283079079626456,0.05104410543950194,0.06380513179937743,0.07656615815925291,0.0893271845191284,0.10208821087900388,0.11484923723887937,0.12761026359875485,0.14037128995863035,0.15313231631850585,0.16589334267838135,0.17865436903825685,0.19141539539813235,0.20417642175800785,0.21693744811788335,0.22969847447775885,0.24245950083763435,0.2552205271975098,0.2679815535573853,0.28074257991726076,0.29350360627713623,0.3062646326370117,0.3190256589968872]","[-0.3,-0.27599999999999997,-0.25199999999999995,-0.22799999999999995,-0.20399999999999996,-0.17999999999999997,-0.15599999999999997,-0.13199999999999998,-0.10799999999999998,-0.08399999999999999,-0.05999999999999999,-0.03599999999999999,-0.01199999999999999,0.01200000000000001,0.03600000000000001,0.06000000000000001,0.08400000000000002,0.10800000000000001,0.132,0.156,0.18,0.204,0.22799999999999998,0.252,0.276,0.30000000000000004,0.276,0.252,0.228,0.20400000000000001,0.18000000000000002,0.15600000000000003,0.13200000000000003,0.10800000000000004,0.08400000000000005,0.060000000000000046,0.036000000000000046,0.012000000000000045,-0.011999999999999955,-0.035999999999999956,-0.059999999999999956,-0.08399999999999996,-0.10799999999999996,-0.13199999999999995,-0.15599999999999994,-0.17999999999999994,-0.20399999999999993,-0.22799999999999992,-0.25199999999999995,-0.27599999999999997,-0.3]","[-0.44947916666666665,-0.440625,-0.43281250000000004,-0.42708333333333337,-0.4239583333333333,-0.4223958333333333,-0.4197916666666667,-0.4161458333333333,-0.41458333333333336,-0.4140625,-0.4140625,-0.4140625,-0.4140625,-0.41354166666666664,-0.4119791666666667,-0.40781249999999997,-0.4005208333333333,-0.3854166666666667,-0.3671875,-0.3421875,-0.3140625,-0.2760416666666667,-0.2265625,-0.1765625,-0.13385416666666666,-0.09583333333333333,-0.059375,-0.015104166666666667,0.03125,0.07083333333333333,0.10052083333333334,0.12291666666666667,0.13489583333333333,0.13802083333333334,0.140625,0.1453125,0.15,0.15416666666666667,0.15833333333333335,0.1640625,0.171875,0.17864583333333334,0.18802083333333333,0.20104166666666667,0.22135416666666669,0.234375,0.246875,0.2578125,0.26718749999999997,0.27239583333333334,0.2796875]","[-0.3,-0.3,-0.3,-0.3,-0.3,-0.3,-0.3,-0.3,-0.3,-0.3,-0.3,-0.3,-0.3,-0.3,-0.3,-0.3,-0.3,-0.3,-0.3,-0.3,-0.3,-0.3,-0.3,-0.3,-0.3,-0.3,-0.3,-0.3,-0.3,-0.3,-0.3,-0.3,-0.3,-0.3,-0.3,-0.3,-0.3,-0.3,-0.3,-0.3,-0.3,-0.3,-0.3,-0.3,-0.3,-0.3,-0.3,-0.3,-0.3,-0.3,-0.3]",80,9,2,hit,1,1,7,,0.04,0.319025659,0.272395833,0.046629826,-1.21431E-17,0.3,tilt,,,70.5741,[],[],[],[],[],[],0,0,0,1,1,5,,,,,
,1,2,1,2022-10-27_12h26.35.994,bounceV3,2022.2.4,Win32,60.10699044,,5,[],[],[],[],[],[],"[0,0,0,0,0,0,0,0,0,0,0,0,0,0,0,0,0,0,0,0,0,0,0,0,0,1,1,1,1,1,1,1,1,1,1,1,1,1,1,1,1,1,1,1,1,1,1,1,1,1,1,1,1,1,1,1,1,1,1,1,1,1,1,1,1,1,1,1,1,1,1,1,1,1,1,1,1,1,1,1,1]","[-0.05249319811555451,-0.05039347019093233,-0.04829374226631015,-0.04619401434168797,-0.04409428641706579,-0.04199455849244361,-0.03989483056782143,-0.03779510264319925,-0.03569537471857707,-0.03359564679395489,-0.03149591886933271,-0.029396190944710528,-0.027296463020088348,-0.025196735095466168,-0.023097007170843988,-0.020997279246221807,-0.018897551321599627,-0.016797823396977447,-0.014698095472355267,-0.012598367547733087,-0.010498639623110907,-0.008398911698488727,-0.006299183773866547,-0.004199455849244367,-0.0020997279246221866,-6.071532165918825e-18,0.01018739558903051,0.020374791178061027,0.03056218676709154,0.040749582356122055,0.05093697794515257,0.06112437353418308,0.0713117691232136,0.08149916471224412,0.09168656030127464,0.10187395589030517,0.11206135147933569,0.1222487470683662,0.13243614265739673,0.14262353824642723,0.15281093383545774,0.16299832942448825,0.17318572501351875,0.18337312060254926,0.19356051619157977,0.20374791178061027,0.21393530736964078,0.2241227029586713,0.2343100985477018,0.2444974941367323,0.2546848897257628,0.26487228531479334,0.2750596809038239,0.2852470764928544,0.29543447208188495,0.3056218676709155,0.315809263259946,0.32599665884897655,0.3361840544380071,0.3463714500270376,0.35655884561606815,0.3667462412050987,0.3769336367941292,0.38712103238315976,0.3973084279721903,0.4074958235612208,0.41768321915025136,0.4278706147392819,0.43805801032831243,0.44824540591734297,0.4584328015063735,0.46862019709540403,0.47880759268443457,0.4889949882734651,0.49918238386249564,0.5093697794515262,0.5195571750405567,0.5297445706295871,0.5399319662186176,0.5501193618076481,0.5603067573966786]","[-0.3,-0.27599999999999997,-0.25199999999999995,-0.22799999999999995,-0.20399999999999996,-0.17999999999999997,-0.15599999999999997,-0.13199999999999998,-0.10799999999999998,-0.08399999999999999,-0.05999999999999999,-0.03599999999999999,-0.01199999999999999,0.01200000000000001,0.03600000000000001,0.06000000000000001,0.08400000000000002,0.10800000000000001,0.132,0.156,0.18,0.204,0.22799999999999998,0.252,0.276,0.30000000000000004,0.276,0.252,0.228,0.20400000000000001,0.18000000000000002,0.15600000000000003,0.13200000000000003,0.10800000000000004,0.08400000000000005,0.060000000000000046,0.036000000000000046,0.012000000000000045,-0.011999999999999955,-0.035999999999999956,-0.059999999999999956,-0.08399999999999996,-0.10799999999999996,-0.13199999999999995,-0.15599999999999994,-0.17999999999999994,-0.20399999999999993,-0.22799999999999992,-0.25199999999999995,-0.27599999999999997,-0.3,-0.324,-0.34800000000000003,-0.37200000000000005,-0.3960000000000001,-0.4200000000000001,-0.4440000000000001,-0.46800000000000014,-0.49200000000000016,-0.5160000000000001,-0.5400000000000001,-0.5640000000000002,-0.5880000000000002,-0.6120000000000002,-0.6360000000000002,-0.6600000000000003,-0.6840000000000003,-0.7080000000000003,-0.7320000000000003,-0.7560000000000003,-0.7800000000000004,-0.8040000000000004,-0.8280000000000004,-0.8520000000000004,-0.8760000000000004,-0.9000000000000005,-0.9240000000000005,-0.9480000000000005,-0.9720000000000005,-0.9960000000000006,-1.0200000000000005]","[-0.49635416666666665,-0.4895833333333333,-0.48020833333333335,-0.46458333333333335,-0.44583333333333336,-0.421875,-0.39687500000000003,-0.3734375,-0.35572916666666665,-0.34791666666666665,-0.34375,-0.3416666666666667,-0.334375,-0.3223958333333333,-0.30885416666666665,-0.28958333333333336,-0.27708333333333335,-0.26614583333333336,-0.25416666666666665,-0.23697916666666666,-0.209375,-0.17447916666666666,-0.1359375,-0.09479166666666666,-0.058854166666666666,-0.028645833333333332,-0.0010416666666666667,0.01875,0.034374999999999996,0.04635416666666666,0.057812499999999996,0.06614583333333333,0.07135416666666666,0.07760416666666667,0.08802083333333333,0.10625,0.12187500000000001,0.13385416666666666,0.14270833333333333,0.1484375,0.15520833333333334,0.16979166666666667,0.1875,0.20572916666666669,0.21822916666666667,0.22864583333333335,0.246875,0.271875,0.2942708333333333,0.3130208333333333,0.32708333333333334,0.3322916666666667,0.3328125,0.3328125,0.3333333333333333,0.3390625,0.3484375,0.35624999999999996,0.35624999999999996,0.35624999999999996,0.35624999999999996,0.35624999999999996,0.35677083333333337,0.35677083333333337,0.35677083333333337,0.35677083333333337,0.35624999999999996,0.35624999999999996,0.35624999999999996,0.35572916666666665,0.3541666666666667,0.3536458333333333,0.3536458333333333,0.3536458333333333,0.3536458333333333,0.35260416666666666,0.3494791666666667,0.34270833333333334,0.3322916666666667,0.31875,0.2973958333333333]","[-0.3,-0.3,-0.3,-0.3,-0.3,-0.3,-0.3,-0.3,-0.3,-0.3,-0.3,-0.3,-0.3,-0.3,-0.3,-0.3,-0.3,-0.3,-0.3,-0.3,-0.3,-0.3,-0.3,-0.3,-0.3,-0.3,-0.3,-0.3,-0.3,-0.3,-0.3,-0.3,-0.3,-0.3,-0.3,-0.3,-0.3,-0.3,-0.3,-0.3,-0.3,-0.3,-0.3,-0.3,-0.3,-0.3,-0.3,-0.3,-0.3,-0.3,-0.3,-0.3,-0.3,-0.3,-0.3,-0.3,-0.3,-0.3,-0.3,-0.3,-0.3,-0.3,-0.3,-0.3,-0.3,-0.3,-0.3,-0.3,-0.3,-0.3,-0.3,-0.3,-0.3,-0.3,-0.3,-0.3,-0.3,-0.3,-0.3,-0.3,-0.3]",85,9,2,miss,1,2,7,,0.04,0.25468489,0.313020833,-0.058335944,-6.07153E-18,0.3,tilt,,,77.6566,[],[],[],[],[],[],0,1,1,0,1,0.4,,,,,
,1,2,1,2022-10-27_12h26.35.994,bounceV3,2022.2.4,Win32,60.10699044,,,,,,,,,,,,,,,,,,,,,,,,,,,,,,,,,,,,,,,,,,,,6,0,6,0,1
,1,2,1,2022-10-27_12h26.35.994,bounceV3,2022.2.4,Win32,60.10699044,0.02,0,[],[],[],[],[],[],"[0,0,0,0,0,0,0,0,0,0,0,0,0,0,0,0,0,0,0,0,0,0,0,0,0,1,1,1,1,1,1,1,1,1,1,1,1,1,1,1,1,1,1,1,1,1,1,1,1,1,1,1,1,1,1,1,1,1,1,1,1,1,1,1,1,1,1,1,1,1,1,1,1,1,1,1,1,1,1,1,1]","[-0.1607695154586736,-0.15433873484032665,-0.1479079542219797,-0.14147717360363274,-0.13504639298528578,-0.12861561236693883,-0.12218483174859189,-0.11575405113024495,-0.10932327051189801,-0.10289248989355107,-0.09646170927520413,-0.09003092865685719,-0.08360014803851025,-0.07716936742016331,-0.07073858680181637,-0.06430780618346943,-0.05787702556512248,-0.051446244946775535,-0.04501546432842859,-0.03858468371008164,-0.032153903091734694,-0.02572312247338775,-0.019292341855040807,-0.012861561236693863,-0.0064307806183469185,2.6020852139652106e-17,0.015585782236740274,0.031171564473480524,0.046757346710220776,0.06234312894696102,0.07792891118370127,0.09351469342044151,0.10910047565718176,0.124686257893922,0.14027204013066225,0.1558578223674025,0.17144360460414276,0.18702938684088302,0.20261516907762328,0.21820095131436354,0.2337867335511038,0.24937251578784406,0.2649582980245843,0.28054408026132455,0.2961298624980648,0.311715644734805,0.32730142697154524,0.34288720920828547,0.3584729914450257,0.37405877368176593,0.38964455591850616,0.4052303381552464,0.4208161203919866,0.43640190262872686,0.4519876848654671,0.4675734671022073,0.48315924933894755,0.4987450315756878,0.5143308138124281,0.5299165960491683,0.5455023782859085,0.5610881605226488,0.576673942759389,0.5922597249961292,0.6078455072328695,0.6234312894696097,0.6390170717063499,0.6546028539430901,0.6701886361798304,0.6857744184165706,0.7013602006533108,0.7169459828900511,0.7325317651267913,0.7481175473635315,0.7637033296002718,0.779289111837012,0.7948748940737522,0.8104606763104925,0.8260464585472327,0.8416322407839729,0.8572180230207131]","[-0.3,-0.27599999999999997,-0.25199999999999995,-0.22799999999999995,-0.20399999999999996,-0.17999999999999997,-0.15599999999999997,-0.13199999999999998,-0.10799999999999998,-0.08399999999999999,-0.05999999999999999,-0.03599999999999999,-0.01199999999999999,0.01200000000000001,0.03600000000000001,0.06000000000000001,0.08400000000000002,0.10800000000000001,0.132,0.156,0.18,0.204,0.22799999999999998,0.252,0.276,0.30000000000000004,0.276,0.252,0.228,0.20400000000000001,0.18000000000000002,0.15600000000000003,0.13200000000000003,0.10800000000000004,0.08400000000000005,0.060000000000000046,0.036000000000000046,0.012000000000000045,-0.011999999999999955,-0.035999999999999956,-0.059999999999999956,-0.08399999999999996,-0.10799999999999996,-0.13199999999999995,-0.15599999999999994,-0.17999999999999994,-0.20399999999999993,-0.22799999999999992,-0.25199999999999995,-0.27599999999999997,-0.3,-0.324,-0.34800000000000003,-0.37200000000000005,-0.3960000000000001,-0.4200000000000001,-0.4440000000000001,-0.46800000000000014,-0.49200000000000016,-0.5160000000000001,-0.5400000000000001,-0.5640000000000002,-0.5880000000000002,-0.6120000000000002,-0.6360000000000002,-0.6600000000000003,-0.6840000000000003,-0.7080000000000003,-0.7320000000000003,-0.7560000000000003,-0.7800000000000004,-0.8040000000000004,-0.8280000000000004,-0.8520000000000004,-0.8760000000000004,-0.9000000000000005,-0.9240000000000005,-0.9480000000000005,-0.9720000000000005,-0.9960000000000006,-1.0200000000000005]","[-0.5,-0.5,-0.5,-0.5,-0.5,-0.5,-0.5,-0.5,-0.5,-0.5,-0.5,-0.5,-0.5,-0.4984375,-0.4927083333333333,-0.48385416666666664,-0.4739583333333333,-0.4640625,-0.45156250000000003,-0.4317708333333333,-0.4052083333333333,-0.36614583333333334,-0.3203125,-0.27447916666666666,-0.2203125,-0.16614583333333335,-0.12447916666666667,-0.0875,-0.058333333333333334,-0.035416666666666666,-0.01875,-0.009375,-0.0015625,0.007291666666666667,0.018229166666666664,0.03125,0.053125,0.07552083333333334,0.09531250000000001,0.11041666666666666,0.1265625,0.14583333333333331,0.16249999999999998,0.1765625,0.19010416666666666,0.21197916666666666,0.2421875,0.2713541666666667,0.2973958333333333,0.3166666666666667,0.33072916666666663,0.34322916666666664,0.3614583333333333,0.390625,0.41822916666666665,0.4390625,0.4473958333333333,0.44947916666666665,0.4557291666666667,0.4640625,0.4703125,0.471875,0.471875,0.46979166666666666,0.46770833333333334,0.4640625,0.4598958333333333,0.4557291666666667,0.44947916666666665,0.4401041666666667,0.4192708333333333,0.3838541666666667,0.3390625,0.2947916666666666,0.2578125,0.22343749999999998,0.18854166666666666,0.15625,0.13072916666666667,0.1171875,0.11041666666666666]","[-0.3,-0.3,-0.3,-0.3,-0.3,-0.3,-0.3,-0.3,-0.3,-0.3,-0.3,-0.3,-0.3,-0.3,-0.3,-0.3,-0.3,-0.3,-0.3,-0.3,-0.3,-0.3,-0.3,-0.3,-0.3,-0.3,-0.3,-0.3,-0.3,-0.3,-0.3,-0.3,-0.3,-0.3,-0.3,-0.3,-0.3,-0.3,-0.3,-0.3,-0.3,-0.3,-0.3,-0.3,-0.3,-0.3,-0.3,-0.3,-0.3,-0.3,-0.3,-0.3,-0.3,-0.3,-0.3,-0.3,-0.3,-0.3,-0.3,-0.3,-0.3,-0.3,-0.3,-0.3,-0.3,-0.3,-0.3,-0.3,-0.3,-0.3,-0.3,-0.3,-0.3,-0.3,-0.3,-0.3,-0.3,-0.3,-0.3,-0.3,-0.3]",75,9,2,miss,1,1,8,,0.04,0.389644556,0.316666667,0.072977889,2.60209E-17,0.3,tilt,,,84.8857,[],[],[],[],[],[],0,0,0,1,1,5,,,,,
,1,2,1,2022-10-27_12h26.35.994,bounceV3,2022.2.4,Win32,60.10699044,,0,[],[],[],[],[],[],"[0,0,0,0,0,0,0,0,0,0,0,0,0,0,0,0,0,0,0,0,0,0,0,0,0,1,1,1,1,1,1,1,1,1,1,1,1,1,1,1,1,1,1,1,1,1,1,1,1,1,1,1,1,1,1,1,1,1,1,1,1,1,1,1,1,1,1,1,1,1,1,1,1,1,1,1,1,1,1,1,1]","[0.10579618842507904,0.10156434088807588,0.09733249335107272,0.09310064581406956,0.0888687982770664,0.08463695074006324,0.08040510320306007,0.07617325566605691,0.07194140812905375,0.06770956059205059,0.06347771305504743,0.05924586551804427,0.05501401798104111,0.05078217044403795,0.046550322907034786,0.042318475370031625,0.038086627833028464,0.0338547802960253,0.02962293275902214,0.02539108522201898,0.02115923768501582,0.016927390148012658,0.012695542611009497,0.008463695074006336,0.004231847537003174,1.214306433183765e-17,-0.012761026359875477,-0.025522052719750964,-0.038283079079626456,-0.05104410543950194,-0.06380513179937743,-0.07656615815925291,-0.0893271845191284,-0.10208821087900388,-0.11484923723887937,-0.12761026359875485,-0.14037128995863035,-0.15313231631850585,-0.16589334267838135,-0.17865436903825685,-0.19141539539813235,-0.20417642175800785,-0.21693744811788335,-0.22969847447775885,-0.24245950083763435,-0.2552205271975098,-0.2679815535573853,-0.28074257991726076,-0.29350360627713623,-0.3062646326370117,-0.3190256589968872,-0.33178668535676265,-0.3445477117166381,-0.3573087380765136,-0.37006976443638906,-0.38283079079626453,-0.39559181715614,-0.4083528435160155,-0.42111386987589094,-0.4338748962357664,-0.4466359225956419,-0.45939694895551736,-0.47215797531539283,-0.4849190016752683,-0.4976800280351438,-0.5104410543950193,-0.5232020807548948,-0.5359631071147704,-0.5487241334746459,-0.5614851598345214,-0.5742461861943969,-0.5870072125542725,-0.599768238914148,-0.6125292652740235,-0.625290291633899,-0.6380513179937746,-0.6508123443536501,-0.6635733707135256,-0.6763343970734012,-0.6890954234332767,-0.7018564497931522]","[-0.3,-0.27599999999999997,-0.25199999999999995,-0.22799999999999995,-0.20399999999999996,-0.17999999999999997,-0.15599999999999997,-0.13199999999999998,-0.10799999999999998,-0.08399999999999999,-0.05999999999999999,-0.03599999999999999,-0.01199999999999999,0.01200000000000001,0.03600000000000001,0.06000000000000001,0.08400000000000002,0.10800000000000001,0.132,0.156,0.18,0.204,0.22799999999999998,0.252,0.276,0.30000000000000004,0.276,0.252,0.228,0.20400000000000001,0.18000000000000002,0.15600000000000003,0.13200000000000003,0.10800000000000004,0.08400000000000005,0.060000000000000046,0.036000000000000046,0.012000000000000045,-0.011999999999999955,-0.035999999999999956,-0.059999999999999956,-0.08399999999999996,-0.10799999999999996,-0.13199999999999995,-0.15599999999999994,-0.17999999999999994,-0.20399999999999993,-0.22799999999999992,-0.25199999999999995,-0.27599999999999997,-0.3,-0.324,-0.34800000000000003,-0.37200000000000005,-0.3960000000000001,-0.4200000000000001,-0.4440000000000001,-0.46800000000000014,-0.49200000000000016,-0.5160000000000001,-0.5400000000000001,-0.5640000000000002,-0.5880000000000002,-0.6120000000000002,-0.6360000000000002,-0.6600000000000003,-0.6840000000000003,-0.7080000000000003,-0.7320000000000003,-0.7560000000000003,-0.7800000000000004,-0.8040000000000004,-0.8280000000000004,-0.8520000000000004,-0.8760000000000004,-0.9000000000000005,-0.9240000000000005,-0.9480000000000005,-0.9720000000000005,-0.9960000000000006,-1.0200000000000005]","[0.49114583333333334,0.48124999999999996,0.46145833333333336,0.43229166666666663,0.39791666666666664,0.36250000000000004,0.3333333333333333,0.3125,0.29218750000000004,0.27239583333333334,0.25625,0.24322916666666666,0.23072916666666668,0.2171875,0.20208333333333334,0.18645833333333334,0.17447916666666666,0.1640625,0.1515625,0.13385416666666666,0.11145833333333334,0.08854166666666667,0.06927083333333334,0.05,0.03177083333333333,0.01614583333333333,0.0010416666666666667,-0.01614583333333333,-0.0296875,-0.04375,-0.0546875,-0.06197916666666667,-0.06614583333333333,-0.07291666666666666,-0.08020833333333334,-0.08802083333333333,-0.0921875,-0.09635416666666667,-0.10208333333333335,-0.1125,-0.12447916666666667,-0.140625,-0.16041666666666668,-0.18697916666666667,-0.21614583333333331,-0.24791666666666667,-0.2869791666666667,-0.3296875,-0.36354166666666665,-0.3854166666666667,-0.4026041666666667,-0.41510416666666666,-0.425,-0.4395833333333333,-0.4588541666666667,-0.4739583333333333,-0.48124999999999996,-0.48124999999999996,-0.48124999999999996,-0.48020833333333335,-0.48020833333333335,-0.48020833333333335,-0.4791666666666667,-0.47760416666666666,-0.47239583333333335,-0.4630208333333333,-0.44791666666666663,-0.43229166666666663,-0.41822916666666665,-0.40781249999999997,-0.39687500000000003,-0.384375,-0.3708333333333333,-0.3541666666666667,-0.3364583333333333,-0.3197916666666667,-0.30729166666666663,-0.2979166666666667,-0.29270833333333335,-0.2869791666666667,-0.27760416666666665]","[-0.3,-0.3,-0.3,-0.3,-0.3,-0.3,-0.3,-0.3,-0.3,-0.3,-0.3,-0.3,-0.3,-0.3,-0.3,-0.3,-0.3,-0.3,-0.3,-0.3,-0.3,-0.3,-0.3,-0.3,-0.3,-0.3,-0.3,-0.3,-0.3,-0.3,-0.3,-0.3,-0.3,-0.3,-0.3,-0.3,-0.3,-0.3,-0.3,-0.3,-0.3,-0.3,-0.3,-0.3,-0.3,-0.3,-0.3,-0.3,-0.3,-0.3,-0.3,-0.3,-0.3,-0.3,-0.3,-0.3,-0.3,-0.3,-0.3,-0.3,-0.3,-0.3,-0.3,-0.3,-0.3,-0.3,-0.3,-0.3,-0.3,-0.3,-0.3,-0.3,-0.3,-0.3,-0.3,-0.3,-0.3,-0.3,-0.3,-0.3,-0.3]",-80,-9,2,miss,1,2,8,,0.04,-0.319025659,-0.385416667,0.066391008,1.21431E-17,0.3,tilt,,,89.785,[],[],[],[],[],[],0,1,1,0,1,0.4,,,,,
,1,2,1,2022-10-27_12h26.35.994,bounceV3,2022.2.4,Win32,60.10699044,,,,,,,,,,,,,,,,,,,,,,,,,,,,,,,,,,,,,,,,,,,,7,0,7,0,1
,1,2,1,2022-10-27_12h26.35.994,bounceV3,2022.2.4,Win32,60.10699044,,,,,,,,,,,,,,,,,,,,,,,,,,,,,,,,,,,,,,,,,,,,,,,,
